time,accx,accy,accz
5,  -170,   123,  8091
10,  -239,   135,  8144
19,  -278,   139,  8190
24,  -324,   134,  8216
29,  -350,   143,  8229
33,  -367,   142,  8234
38,  -384,   140,  8245
43,  -388,   136,  8260
48,  -387,   138,  8278
53,  -360,   143,  8272
58,  -362,   143,  8273
63,  -373,   141,  8275
67,  -388,   149,  8276
72,  -400,   154,  8272
77,  -410,   151,  8266
84,  -470,   126,  8275
93,  -363,   130,  8201
101,  -359,   132,  8204
109,  -358,   118,  8200
117,  -366,   127,  8200
125,  -372,   143,  8192
133,  -385,   156,  8187
141,  -363,    92,  8135
149,  -351,    68,  8108
157,  -355,    83,  8128
165,  -345,    70,  8137
173,  -342,    54,  8136
181,  -336,    34,  8146
186,  -330,    25,  8137
191,  -331,    25,  8153
196,  -332,    16,  8152
201,  -333,    18,  8156
205,  -332,    18,  8160
210,  -328,    21,  8161
217,  -326,    20,  8156
227,  -325,    24,  8154
237,  -331,    27,  8155
247,  -326,    27,  8145
257,  -323,    31,  8134
267,  -325,    34,  8131
277,  -325,    31,  8132
287,  -326,    27,  8129
297,  -324,    30,  8137
307,  -329,    37,  8149
317,  -336,    46,  8155
327,  -336,    53,  8168
337,  -337,    48,  8169
347,  -341,    24,  8162
357,  -349,   -21,  8152
367,  -349,   -22,  8151
377,  -354,    15,  8160
387,  -392,   -34,  8139
397,  -409,   -15,  8134
407,  -367,    35,  8113
417,  -375,    19,  8114
427,  -402,     0,  8129
437,  -393,     4,  8148
447,  -334,    68,  8135
457,  -298,   114,  8151
467,  -322,   114,  8166
477,  -244,   171,  8206
487,  -274,   139,  8199
497,  -283,    90,  8175
507,  -301,   113,  8157
517,  -310,   109,  8152
527,  -313,    89,  8128
537,  -325,   103,  8141
547,  -306,    14,  8193
557,  -335,   131,  8161
567,  -340,    88,  8169
577,  -343,    70,  8170
587,  -346,    87,  8147
597,  -349,    85,  8147
607,  -355,    91,  8152
617,  -359,    87,  8161
627,  -360,    98,  8165
637,  -358,    92,  8172
647,  -358,    94,  8173
657,  -357,    89,  8162
667,  -356,    87,  8150
677,  -355,    86,  8144
687,  -355,    88,  8139
697,  -354,    88,  8144
707,  -354,    84,  8154
717,  -355,    83,  8162
727,  -356,    75,  8162
737,  -360,    81,  8156
747,  -361,    84,  8145
757,  -360,    89,  8145
767,  -356,    83,  8138
777,  -360,    87,  8142
787,  -358,    91,  8144
797,  -356,    95,  8151
807,  -354,    94,  8153
817,  -350,    95,  8143
827,  -349,   100,  8127
837,  -348,    99,  8111
848,  -353,    99,  8115
858,  -358,   103,  8126
867,  -357,   100,  8143
877,  -359,   103,  8159
887,  -366,    97,  8175
900,  -365,    97,  8162
910,  -361,    94,  8146
920,  -359,    87,  8138
930,  -358,    85,  8132
941,  -358,    85,  8134
951,  -354,    89,  8141
961,  -354,    88,  8143
971,  -349,    92,  8141
981,  -351,    96,  8134
991,  -352,    96,  8125
1001,  -355,    93,  8120
1010,  -356,    92,  8130
1021,  -352,    88,  8149
1031,  -354,    86,  8161
1041,  -357,    85,  8170
1051,  -355,    87,  8167
1060,  -356,    87,  8152
1070,  -350,    85,  8141
1080,  -351,    90,  8134
1091,  -347,    92,  8139
1098,  -347,    91,  8143
1108,  -347,    93,  8152
1118,  -349,    94,  8154
1127,  -352,    91,  8147
1137,  -348,    95,  8142
1148,  -345,    99,  8133
1157,  -351,   102,  8133
1168,  -349,    99,  8141
1177,  -347,    98,  8149
1187,  -346,    95,  8163
1197,  -349,    95,  8173
1208,  -350,    93,  8163
1218,  -352,    91,  8151
1227,  -354,    91,  8141
1237,  -352,    91,  8140
1248,  -352,    89,  8145
1257,  -353,    93,  8154
1268,  -353,    96,  8152
1277,  -353,    93,  8153
1288,  -354,    89,  8142
1298,  -358,    87,  8135
1307,  -357,    91,  8127
1318,  -358,    96,  8133
1328,  -357,    92,  8142
1338,  -361,    92,  8152
1348,  -364,    93,  8157
1357,  -362,    93,  8157
1368,  -358,    94,  8152
1378,  -358,    94,  8137
1388,  -354,    97,  8136
1398,  -353,    95,  8143
1408,  -354,    97,  8148
1417,  -355,    98,  8152
1428,  -361,   101,  8150
1438,  -362,    99,  8149
1448,  -357,   100,  8149
1458,  -357,    98,  8150
1468,  -358,    97,  8142
1478,  -357,    94,  8141
1488,  -355,    96,  8149
1498,  -352,    98,  8156
1508,  -352,    96,  8156
1518,  -358,    95,  8158
1528,  -360,    93,  8152
1538,  -355,    89,  8145
1548,  -351,    87,  8141
1558,  -350,    83,  8141
1568,  -356,    85,  8145
1578,  -357,    85,  8151
1588,  -354,    84,  8156
1598,  -358,    87,  8153
1608,  -357,    90,  8153
1618,  -353,    95,  8146
1628,  -354,    94,  8147
1638,  -355,    95,  8147
1648,  -355,    98,  8149
1658,  -360,   102,  8151
1668,  -357,   103,  8145
1678,  -355,   102,  8147
1688,  -355,   102,  8143
1698,  -352,    97,  8142
1708,  -350,    97,  8137
1718,  -352,    98,  8139
1728,  -351,    98,  8140
1738,  -356,    98,  8141
1748,  -356,    92,  8142
1758,  -355,    94,  8140
1768,  -354,    95,  8137
1778,  -353,   100,  8133
1788,  -357,    98,  8140
1798,  -355,   101,  8141
1812,  -361,   100,  8143
1822,  -361,    96,  8145
1833,  -364,    99,  8142
1843,  -361,    98,  8139
1852,  -361,    95,  8136
1862,  -355,    94,  8139
1872,  -354,    90,  8144
1882,  -354,    85,  8151
1892,  -356,    83,  8159
1901,  -357,    82,  8157
1910,  -357,    88,  8153
1920,  -356,    92,  8152
1931,  -358,    92,  8147
1941,  -358,    92,  8141
1950,  -361,    90,  8138
1961,  -365,    90,  8148
1971,  -357,    88,  8154
1981,  -356,    93,  8147
1990,  -356,    97,  8137
2000,  -350,    94,  8130
2011,  -351,    95,  8121
2021,  -356,    98,  8119
2030,  -355,    99,  8123
2040,  -351,   100,  8138
2051,  -350,   101,  8140
2061,  -354,   104,  8137
2071,  -357,   103,  8138
2081,  -357,   102,  8141
2091,  -356,   101,  8140
2100,  -354,    98,  8153
2111,  -354,    95,  8157
2122,  -357,    92,  8161
2132,  -354,    90,  8160
2141,  -353,    92,  8158
2151,  -356,    89,  8149
2161,  -356,    90,  8149
2171,  -353,    85,  8146
2181,  -354,    89,  8146
2191,  -355,    92,  8149
2202,  -356,    87,  8144
2212,  -359,    84,  8147
2221,  -362,    89,  8149
2231,  -359,    93,  8148
2241,  -361,    91,  8142
2251,  -357,    86,  8148
2261,  -355,    93,  8152
2271,  -356,    97,  8152
2281,  -353,    99,  8149
2292,  -349,    99,  8145
2302,  -351,   101,  8144
2311,  -348,    99,  8133
2320,  -346,    99,  8129
2331,  -347,    96,  8132
2341,  -350,    97,  8134
2351,  -353,    98,  8147
2361,  -358,   101,  8157
2371,  -358,   108,  8154
2381,  -358,   107,  8151
2391,  -360,   102,  8149
2401,  -356,    98,  8142
2411,  -354,    94,  8146
2421,  -356,    91,  8144
2431,  -360,    90,  8148
2441,  -356,    95,  8154
2451,  -356,    96,  8153
2462,  -357,    95,  8152
2472,  -353,    94,  8139
2482,  -357,    92,  8139
2492,  -352,    90,  8141
2502,  -353,    89,  8145
2512,  -351,    91,  8143
2522,  -352,    89,  8146
2532,  -356,    86,  8145
2542,  -360,    88,  8144
2552,  -360,    91,  8143
2563,  -355,    92,  8141
2572,  -351,    93,  8140
2582,  -349,    91,  8144
2592,  -355,    93,  8146
2601,  -358,    91,  8144
2609,  -356,   101,  8149
2619,  -359,   100,  8144
2629,  -363,    99,  8140
2639,  -364,   102,  8139
2649,  -358,   104,  8140
2659,  -356,   104,  8144
2669,  -357,   106,  8140
2679,  -357,   103,  8143
2689,  -356,   102,  8140
2699,  -358,    99,  8146
2709,  -355,    92,  8151
2718,  -354,    92,  8143
2729,  -355,    87,  8140
2739,  -356,    86,  8136
2749,  -354,    87,  8139
2759,  -350,    87,  8143
2769,  -348,    90,  8148
2779,  -348,    92,  8141
2789,  -348,    93,  8142
2799,  -348,    93,  8144
2809,  -350,    94,  8146
2819,  -353,    93,  8157
2829,  -355,    91,  8161
2839,  -352,    90,  8162
2849,  -353,    90,  8168
2859,  -356,    88,  8163
2869,  -356,    98,  8150
2879,  -354,    99,  8149
2889,  -353,    99,  8146
2899,  -357,    97,  8147
2909,  -357,   101,  8143
2919,  -356,    99,  8144
2929,  -357,   100,  8139
2939,  -360,    98,  8140
2949,  -358,    96,  8141
2959,  -361,    93,  8145
2969,  -359,    94,  8148
2979,  -358,    92,  8148
2989,  -359,    91,  8144
2999,  -357,    91,  8148
3009,  -355,    93,  8154
3019,  -360,    91,  8148
3029,  -362,    86,  8144
3039,  -361,    88,  8145
3049,  -359,    86,  8151
3059,  -358,    84,  8149
3069,  -362,    90,  8145
3079,  -360,    93,  8141
3089,  -358,    99,  8140
3099,  -356,   102,  8144
3109,  -359,    97,  8144
3119,  -361,   100,  8144
3129,  -361,   100,  8144
3139,  -361,   106,  8143
3149,  -357,   104,  8146
3159,  -358,   101,  8148
3169,  -354,   102,  8147
3179,  -351,   107,  8140
3189,  -352,   105,  8136
3199,  -350,   107,  8134
3209,  -352,   103,  8134
3219,  -354,   105,  8135
3229,  -352,   102,  8133
3239,  -353,   101,  8139
3249,  -354,   104,  8139
3259,  -350,   103,  8143
3269,  -355,   106,  8142
3279,  -355,   107,  8145
3289,  -353,   102,  8147
3299,  -352,   100,  8154
3310,  -360,    97,  8154
3322,  -358,   101,  8145
3332,  -356,    96,  8141
3342,  -355,    93,  8140
3352,  -354,    94,  8139
3362,  -354,    95,  8138
3372,  -352,    98,  8136
3382,  -352,   101,  8139
3393,  -353,   101,  8148
3403,  -355,   103,  8155
3411,  -354,   100,  8158
3419,  -357,    99,  8158
3429,  -358,    98,  8153
3439,  -358,   103,  8142
3449,  -355,   102,  8134
3460,  -352,    94,  8120
3469,  -347,    90,  8117
3480,  -348,    88,  8124
3489,  -351,    85,  8127
3499,  -349,    89,  8138
3509,  -352,    86,  8155
3519,  -361,    86,  8161
3530,  -371,    84,  8167
3539,  -368,    85,  8174
3549,  -370,    85,  8178
3562,  -364,    86,  8175
3569,  -362,    86,  8169
3579,  -363,    89,  8160
3589,  -364,    88,  8154
3599,  -360,    92,  8142
3609,  -351,    95,  8129
3620,  -347,   102,  8119
3630,  -347,   105,  8121
3639,  -344,   108,  8122
3650,  -348,   111,  8129
3659,  -350,   107,  8145
3669,  -354,   108,  8157
3680,  -352,   109,  8165
3689,  -356,   107,  8172
3699,  -359,   108,  8174
3710,  -357,   110,  8174
3719,  -356,   106,  8167
3730,  -354,   100,  8161
3740,  -352,    95,  8152
3750,  -348,    88,  8144
3760,  -350,    92,  8136
3769,  -348,    94,  8125
3780,  -346,    88,  8115
3790,  -347,    89,  8107
3800,  -351,    86,  8110
3810,  -352,    81,  8134
3819,  -354,    82,  8161
3830,  -361,    79,  8175
3839,  -362,    84,  8175
3849,  -362,   109,  8162
3860,  -352,    80,  8171
3870,  -354,    25,  8196
3879,  -317,   128,  8183
3889,  -291,   259,  8150
3900,  -304,   306,  8157
3910,  -338,   173,  8142
3920,  -379,    -8,  8149
3930,  -387,    31,  8112
3940,  -396,    47,  8119
3949,  -397,    91,  8123
3960,  -388,   124,  8084
3970,  -395,   120,  8143
3980,  -395,   135,  8142
3990,  -400,   120,  8172
4000,  -387,   101,  8180
4010,  -386,    93,  8185
4020,  -385,    98,  8175
4030,  -387,    93,  8173
4040,  -386,    98,  8158
4050,  -382,   100,  8144
4060,  -378,   104,  8131
4070,  -376,   113,  8121
4080,  -377,   116,  8115
4090,  -376,   108,  8115
4100,  -370,    99,  8117
4110,  -373,   104,  8119
4123,  -381,   124,  8123
4133,  -389,   113,  8139
4143,  -392,   111,  8141
4153,  -385,   106,  8152
4163,  -383,   106,  8158
4173,  -385,   111,  8168
4183,  -382,   103,  8164
4193,  -377,   101,  8159
4203,  -383,   106,  8150
4213,  -384,   108,  8136
4222,  -393,   112,  8123
4232,  -406,   104,  8134
4242,  -409,   102,  8139
4253,  -405,   101,  8141
4262,  -410,   102,  8150
4272,  -421,   109,  8158
4282,  -429,   123,  8158
4292,  -438,   137,  8148
4302,  -434,   121,  8151
4313,  -421,   115,  8140
4320,  -393,   107,  8119
4330,  -378,    76,  8107
4340,  -372,    58,  8099
4350,  -374,    53,  8101
4360,  -379,    59,  8104
4370,  -380,    65,  8106
4380,  -384,    69,  8113
4390,  -387,    71,  8122
4400,  -388,    75,  8133
4410,  -387,    80,  8141
4420,  -395,    83,  8154
4430,  -398,    81,  8161
4440,  -404,    78,  8168
4450,  -403,    76,  8167
4460,  -404,    74,  8158
4470,  -403,    73,  8143
4480,  -402,    79,  8135
4490,  -403,    87,  8131
4500,  -405,    94,  8124
4510,  -404,    98,  8127
4520,  -401,   100,  8128
4530,  -389,   103,  8113
4540,  -384,    99,  8115
4550,  -386,   108,  8129
4560,  -395,   124,  8139
4570,  -394,   125,  8153
4580,  -387,   111,  8153
4590,  -384,   102,  8151
4600,  -386,    87,  8152
4610,  -381,    69,  8141
4620,  -381,    68,  8141
4630,  -383,    57,  8131
4640,  -380,    62,  8122
4650,  -379,    57,  8123
4660,  -377,    79,  8125
4670,  -364,    85,  8121
4680,  -373,    82,  8126
4690,  -382,    66,  8133
4700,  -389,    79,  8144
4710,  -393,    99,  8157
4720,  -386,    92,  8163
4730,  -397,   123,  8182
4741,  -394,   113,  8176
4750,  -406,   126,  8178
4760,  -404,   118,  8163
4770,  -378,   177,  8170
4781,  -399,   166,  8147
4790,  -389,   193,  8155
4800,  -410,   191,  8160
4810,  -408,   171,  8130
4820,  -400,   168,  8135
4831,  -452,   154,  8169
4840,  -419,   137,  8142
4851,  -447,    75,  8124
4860,  -397,   130,  8132
4870,  -375,   136,  8111
4881,  -331,   167,  8127
4890,  -326,   126,  8134
4900,  -358,   128,  8147
4910,  -317,   100,  8123
4921,  -363,   135,  8138
4930,  -362,   159,  8127
4941,  -393,   143,  8139
4951,  -318,   200,  8142
4960,  -354,   159,  8117
4971,  -391,    75,  8112
4980,  -371,   123,  8135
4990,  -374,   124,  8147
5000,  -388,   146,  8156
5011,  -424,   110,  8158
5020,  -461,    48,  8144
5034,  -383,    61,  8139
5044,  -442,    48,  8143
5054,  -404,    57,  8134
5064,  -412,    30,  8147
5074,  -410,     9,  8127
5083,  -401,    43,  8131
5093,  -464,     6,  8116
5104,  -470,   -29,  8089
5114,  -474,    79,  8083
5123,  -429,   109,  8069
5131,  -361,    89,  8105
5141,  -386,   119,  8099
5151,  -340,   132,  8149
5161,  -278,    44,  8157
5171,  -317,    29,  8162
5180,  -337,    41,  8176
5191,  -336,    79,  8151
5201,  -385,    73,  8169
5210,  -312,   106,  8165
5221,  -336,    96,  8169
5231,  -330,    88,  8149
5241,  -395,   111,  8147
5251,  -369,   103,  8129
5261,  -346,    90,  8123
5271,  -397,    48,  8137
5281,  -422,    13,  8146
5291,  -410,   -27,  8120
5301,  -412,   -14,  8136
5311,  -445,   -20,  8140
5321,  -436,    21,  8153
5331,  -403,    43,  8150
5341,  -362,    30,  8151
5351,  -379,    34,  8164
5361,  -325,    74,  8165
5371,  -422,    82,  8156
5381,  -362,   149,  8162
5391,  -315,   120,  8150
5401,  -313,   106,  8152
5411,  -297,   102,  8151
5421,  -276,   153,  8142
5431,  -272,   213,  8140
5441,  -419,   133,  8180
5451,  -392,   121,  8141
5461,  -284,   204,  8156
5471,  -386,   132,  8129
5481,  -306,   115,  8111
5491,  -316,    71,  8097
5501,  -316,   105,  8118
5511,  -316,   151,  8134
5521,  -313,   136,  8139
5531,  -372,    70,  8151
5541,  -394,    44,  8151
5551,  -324,   157,  8163
5561,  -337,    99,  8162
5571,  -378,    34,  8174
5581,  -330,    46,  8168
5591,  -310,    45,  8174
5601,  -285,    59,  8178
5611,  -311,    70,  8174
5621,  -335,   -47,  8165
5631,  -336,   -63,  8149
5641,  -335,    -2,  8138
5651,  -287,   126,  8143
5661,  -267,   148,  8124
5671,  -264,   108,  8120
5681,  -270,   156,  8124
5691,  -262,   101,  8112
5701,  -270,    63,  8104
5711,  -304,    65,  8121
5721,  -291,    74,  8107
5731,  -287,    47,  8119
5741,  -310,    53,  8155
5751,  -305,     5,  8140
5761,  -254,    47,  8150
5771,  -282,    17,  8182
5781,  -258,   -18,  8183
5791,  -266,   -53,  8157
5801,  -395,  -115,  8132
5811,  -382,   -51,  8126
5821,  -354,     6,  8137
5834,  -362,    37,  8133
5845,  -372,    18,  8150
5854,  -321,    47,  8139
5864,  -323,    84,  8156
5874,  -321,   131,  8157
5884,  -348,   159,  8162
5894,  -334,   168,  8155
5904,  -348,   167,  8166
5915,  -340,   148,  8158
5925,  -274,   177,  8151
5935,  -335,   143,  8174
5944,  -337,   131,  8168
5954,  -268,   239,  8163
5964,  -304,   221,  8133
5974,  -301,   175,  8112
5984,  -302,   149,  8121
5994,  -265,   141,  8115
6005,  -301,   105,  8106
6014,  -318,    78,  8110
6024,  -232,   153,  8122
6034,  -269,   116,  8119
6045,  -206,   141,  8121
6055,  -224,   226,  8143
6065,  -282,   203,  8171
6074,  -248,   223,  8169
6084,  -272,   199,  8175
6094,  -247,   169,  8161
6104,  -220,   117,  8187
6114,  -317,   184,  8200
6125,  -300,   175,  8193
6135,  -319,    76,  8228
6146,  -351,   -92,  8180
6156,  -319,   -69,  8153
6166,  -332,   -63,  8108
6175,  -377,    19,  8133
6185,  -386,    28,  8118
6195,  -349,   -18,  8114
6205,  -360,   -61,  8108
6215,  -394,   -46,  8117
6225,  -381,   -58,  8117
6234,  -361,   -53,  8127
6244,  -349,    12,  8112
6254,  -322,   154,  8131
6264,  -237,   216,  8149
6274,  -227,   191,  8139
6284,  -197,   201,  8172
6294,  -229,   134,  8166
6304,  -214,    99,  8164
6314,  -266,   102,  8153
6324,  -300,   154,  8150
6334,  -297,   147,  8139
6345,  -292,   161,  8137
6354,  -240,   244,  8133
6364,  -263,   149,  8136
6375,  -251,    14,  8129
6384,  -226,   -24,  8119
6395,  -244,   -33,  8104
6407,  -274,    54,  8113
6415,  -299,   161,  8124
6424,  -363,   143,  8129
6434,  -407,    91,  8139
6442,  -374,   156,  8154
6452,  -389,   123,  8157
6462,  -423,   111,  8145
6472,  -401,    63,  8137
6482,  -387,    16,  8134
6492,  -404,    27,  8159
6502,  -344,     5,  8140
6512,  -254,    60,  8137
6522,  -237,    84,  8133
6532,  -237,   147,  8139
6542,  -207,   182,  8139
6551,  -203,   172,  8155
6562,  -202,   144,  8147
6572,  -270,   132,  8145
6582,  -266,    96,  8167
6592,  -295,    94,  8177
6602,  -295,   116,  8186
6612,  -333,    73,  8179
6621,  -303,    52,  8170
6632,  -294,    24,  8133
6642,  -254,     4,  8145
6652,  -192,    25,  8149
6662,  -175,    35,  8146
6672,  -163,    65,  8161
6682,  -134,   101,  8150
6692,  -168,    90,  8151
6702,  -150,    84,  8143
6712,  -132,    87,  8153
6722,  -121,   107,  8170
6732,  -167,    54,  8173
6742,  -170,    47,  8169
6752,  -238,     5,  8183
6762,  -218,    50,  8186
6772,  -212,    67,  8184
6782,  -212,    95,  8182
6792,  -264,    84,  8177
6802,  -298,    60,  8157
6812,  -310,    45,  8143
6822,  -287,    50,  8130
6832,  -291,    56,  8115
6842,  -291,    41,  8105
6852,  -235,    46,  8099
6862,  -262,    39,  8118
6872,  -235,    29,  8142
6882,  -228,    43,  8154
6892,  -234,    71,  8174
6902,  -301,    65,  8184
6912,  -284,    63,  8167
6922,  -289,    83,  8166
6932,  -342,    60,  8169
6942,  -320,    82,  8170
6952,  -238,    50,  8169
6962,  -175,    37,  8147
6972,  -140,    51,  8136
6982,  -140,    54,  8132
6993,  -163,    54,  8141
7002,  -209,    49,  8145
7012,  -270,    38,  8156
7022,  -270,     8,  8161
7032,  -256,    46,  8157
7047,  -238,    25,  8166
7052,  -225,    45,  8164
7062,  -270,    61,  8180
7072,  -241,    47,  8174
7082,  -210,    50,  8167
7092,  -220,    79,  8158
7102,  -279,    63,  8141
7112,  -288,    50,  8135
7122,  -283,    87,  8123
7132,  -327,   100,  8125
7146,  -361,    64,  8148
7156,  -303,    42,  8150
7166,  -315,   -37,  8132
7175,  -334,   -69,  8160
7185,  -341,  -136,  8125
7195,  -371,   -90,  8147
7205,  -343,  -106,  8149
7216,  -258,   -95,  8136
7225,  -185,   -37,  8160
7235,  -147,    -6,  8157
7243,  -104,    75,  8150
7253,  -105,   103,  8141
7262,  -148,    60,  8147
7273,   -27,   241,  8147
7282,   -39,   201,  8147
7293,   -62,   196,  8158
7302,   -87,   154,  8156
7312,  -166,   158,  8166
7322,  -195,   106,  8186
7333,  -169,   106,  8179
7342,  -175,   104,  8176
7353,  -164,    88,  8178
7362,  -161,    69,  8165
7372,  -170,    55,  8165
7383,  -177,    51,  8150
7392,  -176,    50,  8144
7402,  -177,    54,  8139
7412,  -185,    56,  8131
7423,  -184,    70,  8115
7432,  -226,   188,  8180
7442,  -210,   199,  8157
7453,  -205,   142,  8158
7463,  -224,    98,  8168
7472,  -264,    67,  8140
7482,  -288,    48,  8146
7492,  -277,     8,  8133
7503,  -250,    43,  8140
7512,  -272,    25,  8156
7523,  -254,     9,  8151
7532,  -268,    -5,  8151
7543,  -260,     3,  8152
7553,  -281,    17,  8146
7563,  -321,    56,  8146
7573,  -299,    48,  8146
7583,  -242,    50,  8142
7592,  -181,    45,  8180
7603,  -131,     4,  8169
7613,  -131,     1,  8160
7623,  -147,     6,  8156
7633,  -163,    19,  8152
7642,  -178,    29,  8152
7653,  -188,    50,  8148
7663,  -198,    71,  8135
7673,  -182,   111,  8121
7682,  -215,    70,  8130
7693,  -231,    42,  8130
7703,  -227,    45,  8126
7713,  -249,     9,  8066
7723,  -250,    29,  8111
7733,  -227,    25,  8135
7743,  -214,    26,  8143
7753,  -212,    28,  8142
7763,  -214,    34,  8138
7773,  -215,    40,  8140
7783,  -217,    42,  8144
7793,  -219,    41,  8147
7803,  -218,    47,  8142
7813,  -219,    49,  8148
7823,  -227,    65,  8149
7833,  -229,    71,  8146
7843,  -237,    97,  8144
7852,  -250,    61,  8140
7863,  -243,    72,  8160
7873,  -232,    55,  8166
7883,  -218,    56,  8163
7893,  -202,    74,  8159
7903,  -203,    68,  8153
7913,  -210,    66,  8151
7923,  -224,    64,  8137
7933,  -247,    73,  8139
7943,  -276,    46,  8155
7955,  -256,    62,  8170
7965,  -235,    82,  8182
7975,  -209,    70,  8171
7985,  -209,    70,  8165
7996,  -212,    73,  8165
8005,  -205,    69,  8158
8015,  -198,    55,  8157
8025,  -196,    45,  8154
8036,  -204,    39,  8154
8045,  -212,    41,  8152
8056,  -213,    41,  8145
8066,  -210,    49,  8139
8076,  -212,    52,  8137
8086,  -217,    54,  8140
8096,  -222,    58,  8144
8106,  -219,    52,  8143
8118,  -215,    51,  8152
8126,  -211,    49,  8155
8136,  -210,    53,  8150
8146,  -215,    59,  8146
8156,  -215,    59,  8145
8165,  -218,    62,  8148
8176,  -218,    59,  8156
8185,  -219,    54,  8162
8195,  -220,    50,  8167
8205,  -223,    45,  8168
8215,  -222,    49,  8151
8225,  -223,    55,  8138
8235,  -224,    55,  8132
8246,  -226,    55,  8139
8256,  -228,    53,  8144
8266,  -227,    54,  8153
8275,  -222,    53,  8156
8286,  -219,    54,  8157
8295,  -218,    51,  8151
8305,  -221,    46,  8149
8316,  -224,    50,  8149
8326,  -221,    51,  8153
8335,  -216,    57,  8151
8345,  -220,    50,  8151
8355,  -227,    48,  8152
8365,  -233,    36,  8151
8376,  -229,    38,  8150
8386,  -225,    34,  8142
8396,  -228,    40,  8136
8406,  -228,    47,  8135
8415,  -230,    52,  8142
8425,  -230,    51,  8139
8435,  -226,    51,  8139
8446,  -225,    55,  8135
8456,  -225,    58,  8138
8465,  -222,    55,  8146
8475,  -218,    54,  8155
8485,  -215,    53,  8155
8496,  -217,    53,  8163
8506,  -217,    52,  8162
8516,  -220,    52,  8156
8525,  -217,    49,  8153
8536,  -215,    52,  8149
8546,  -218,    52,  8143
8555,  -224,    53,  8144
8565,  -224,    48,  8147
8575,  -221,    45,  8155
8586,  -221,    44,  8156
8596,  -223,    45,  8159
8606,  -222,    45,  8158
8616,  -222,    46,  8160
8625,  -221,    44,  8154
8636,  -221,    51,  8150
8646,  -222,    63,  8155
8656,  -224,    54,  8145
8665,  -219,    49,  8149
8676,  -215,    48,  8142
8686,  -210,    48,  8141
8696,  -208,    43,  8142
8706,  -216,    43,  8140
8715,  -217,    43,  8147
8726,  -216,    45,  8145
8736,  -212,    47,  8141
8746,  -219,    44,  8146
8756,  -220,    43,  8146
8766,  -226,    38,  8151
8775,  -223,    35,  8166
8786,  -217,    40,  8169
8796,  -220,    41,  8167
8807,  -222,    47,  8167
8816,  -221,    45,  8160
8826,  -213,    45,  8155
8836,  -209,    47,  8154
8846,  -205,    55,  8153
8854,  -204,    52,  8156
8864,  -210,    52,  8155
8874,  -217,    56,  8165
8883,  -220,    49,  8162
8893,  -223,    43,  8165
8903,  -225,    45,  8151
8914,  -229,    47,  8156
8924,  -223,    48,  8153
8933,  -214,    49,  8150
8944,  -216,    62,  8160
8953,  -220,    64,  8155
8964,  -225,    64,  8165
8974,  -228,    61,  8157
8983,  -220,    63,  8145
8994,  -207,    59,  8127
9004,  -216,    51,  8126
9014,  -219,    47,  8130
9024,  -221,    54,  8148
9034,  -219,    57,  8141
9044,  -223,    59,  8133
9053,  -224,    56,  8132
9064,  -223,    57,  8128
9074,  -228,    54,  8136
9084,  -221,    52,  8144
9094,  -217,    46,  8155
9104,  -214,    55,  8168
9113,  -219,    59,  8171
9124,  -220,    57,  8169
9134,  -224,    45,  8163
9144,  -219,    37,  8145
9154,  -220,    40,  8126
9164,  -218,    40,  8136
9174,  -214,    43,  8135
9184,  -205,    44,  8131
9194,  -206,    51,  8138
9204,  -211,    45,  8139
9214,  -219,    47,  8141
9224,  -220,    45,  8150
9234,  -221,    49,  8158
9244,  -216,    52,  8167
9254,  -219,    57,  8175
9264,  -221,    59,  8178
9274,  -219,    58,  8168
9284,  -216,    58,  8162
9294,  -218,    54,  8151
9304,  -219,    56,  8145
9314,  -220,    52,  8140
9324,  -221,    53,  8134
9334,  -221,    51,  8128
9344,  -221,    50,  8128
9354,  -212,    55,  8127
9364,  -209,    55,  8133
9374,  -214,    54,  8143
9384,  -287,  -330,  8167
9394,  -228,  -488,  8211
9404,  -226,  -320,  8206
9414,  -219,  -277,  8196
9424,  -214,   -64,  8187
9434,  -203,    43,  8171
9444,  -202,    84,  8153
9454,  -210,   246,  8141
9464,  -237,   385,  8136
9474,  -248,   422,  8127
9484,  -241,   332,  8132
9494,  -236,   263,  8145
9504,  -231,   210,  8160
9514,  -234,   171,  8170
9524,  -236,   138,  8173
9534,  -240,   119,  8175
9544,  -241,   107,  8175
9554,  -235,    98,  8177
9566,  -231,    89,  8174
9576,  -230,    81,  8162
9587,  -225,    82,  8155
9596,  -225,    74,  8142
9606,  -227,    67,  8122
9617,  -227,    60,  8113
9627,  -225,    62,  8113
9636,  -223,    58,  8121
9646,  -221,    58,  8130
9657,  -226,    58,  8142
9664,  -233,    57,  8156
9674,  -234,    62,  8153
9684,  -230,    60,  8156
9694,  -228,    57,  8167
9704,  -226,    55,  8165
9714,  -228,    55,  8161
9724,  -226,    54,  8151
9734,  -226,    48,  8139
9744,  -228,    48,  8126
9754,  -226,    50,  8114
9764,  -223,    50,  8114
9774,  -221,    53,  8116
9784,  -217,    59,  8127
9794,  -217,    61,  8145
9804,  -220,    61,  8155
9814,  -227,    65,  8160
9824,  -234,    66,  8166
9834,  -232,    63,  8172
9844,  -228,    62,  8175
9854,  -229,    61,  8177
9865,  -226,    59,  8167
9874,  -224,    55,  8157
9885,  -226,    51,  8147
9894,  -221,    55,  8143
9904,  -221,    51,  8136
9914,  -225,    52,  8136
9925,  -224,    50,  8133
9935,  -219,    56,  8130
9945,  -217,    60,  8132
9954,  -222,    65,  8137
9964,  -223,    64,  8136
9975,  -222,    56,  8147
9984,  -218,    60,  8154
9994,  -219,    58,  8154
10004,  -221,    56,  8156
10014,  -223,    52,  8154
10025,  -229,    51,  8149
10035,  -229,    48,  8145
10044,  -229,    51,  8141
10054,  -227,    50,  8139
10064,  -227,    54,  8142
10074,  -229,    54,  8139
10085,  -227,    54,  8145
10094,  -228,    53,  8148
10104,  -232,    55,  8149
10114,  -232,    60,  8145
10124,  -232,    64,  8144
10134,  -229,    61,  8144
10145,  -222,    62,  8145
10154,  -222,    61,  8143
10164,  -224,    59,  8146
10175,  -229,    55,  8138
10185,  -222,    56,  8141
10195,  -225,    53,  8140
10204,  -225,    53,  8135
10215,  -228,    54,  8134
10225,  -232,    53,  8137
10234,  -232,    55,  8140
10245,  -230,    58,  8138
10255,  -229,    57,  8138
10265,  -223,    58,  8148
10274,  -220,    57,  8143
10285,  -222,    59,  8144
10295,  -221,    59,  8143
10305,  -220,    67,  8150
10315,  -219,    68,  8158
10325,  -218,    69,  8159
10334,  -217,    68,  8151
10345,  -220,    66,  8147
10355,  -219,    63,  8146
10366,  -220,    62,  8144
10377,  -214,    63,  8153
10387,  -215,    61,  8156
10397,  -218,    66,  8164
10407,  -219,    66,  8160
10417,  -217,    66,  8152
10428,  -216,    61,  8151
10438,  -216,    61,  8143
10447,  -220,    61,  8143
10457,  -223,    55,  8153
10466,  -227,    53,  8155
10475,  -230,    56,  8148
10485,  -231,    55,  8148
10495,  -232,    53,  8145
10505,  -232,    59,  8151
10515,  -231,    54,  8157
10525,  -231,    54,  8173
10535,  -228,    58,  8185
10545,  -223,    64,  8178
10555,  -229,    61,  8167
10565,  -231,    58,  8156
10575,  -229,    57,  8151
10585,  -230,    54,  8151
10595,  -230,    55,  8141
10605,  -224,    56,  8145
10615,  -224,    52,  8140
10625,  -223,    52,  8135
10635,  -224,    52,  8134
10645,  -220,    48,  8131
10655,  -225,    51,  8141
10665,  -225,    50,  8144
10675,  -224,    50,  8152
10685,  -226,    51,  8158
10695,  -229,    51,  8163
10705,  -231,    52,  8158
10715,  -236,    53,  8158
10725,  -237,    53,  8156
10735,  -235,    58,  8148
10745,  -232,    61,  8156
10755,  -230,    60,  8158
10765,  -228,    60,  8158
10775,  -226,    56,  8155
10785,  -227,    57,  8150
10795,  -230,    54,  8139
10805,  -231,    56,  8136
10815,  -224,    54,  8134
10825,  -222,    54,  8133
10835,  -224,    55,  8136
10845,  -223,    51,  8136
10855,  -230,    55,  8141
10865,  -234,    56,  8149
10875,  -232,    59,  8153
10885,  -230,    58,  8159
10895,  -227,    59,  8148
10905,  -231,    56,  8145
10915,  -230,    54,  8148
10925,  -229,    53,  8144
10935,  -230,    51,  8143
10945,  -229,    56,  8142
10955,  -230,    59,  8145
10965,  -230,    59,  8149
10975,  -230,    58,  8148
10985,  -229,    65,  8145
10995,  -226,    63,  8151
11005,  -224,    67,  8150
11015,  -219,    66,  8149
11025,  -215,    66,  8151
11035,  -215,    66,  8150
11045,  -219,    63,  8151
11055,  -223,    56,  8148
11065,  -226,    54,  8139
11075,  -227,    51,  8140
11085,  -227,    52,  8137
11096,  -229,    54,  8139
11105,  -227,    57,  8138
11119,  -223,    55,  8146
11125,  -225,    55,  8150
11135,  -226,    55,  8143
11145,  -220,    57,  8147
11155,  -221,    61,  8144
11166,  -220,    63,  8148
11179,  -219,    60,  8149
11189,  -223,    58,  8151
11199,  -220,    55,  8146
11209,  -223,    54,  8143
11219,  -232,    53,  8138
11229,  -222,    34,  8131
11239,  -218,    43,  8133
11249,  -214,    34,  8130
11259,  -237,    22,  8145
11269,  -232,    35,  8148
11278,  -234,    47,  8158
11288,  -238,    45,  8151
11298,  -238,    42,  8152
11308,  -237,    43,  8145
11317,  -232,    39,  8143
11328,  -232,    41,  8144
11338,  -232,    41,  8151
11348,  -229,    50,  8152
11358,  -229,    52,  8156
11368,  -225,    52,  8156
11378,  -224,    51,  8160
11388,  -221,    57,  8158
11398,  -219,    57,  8149
11408,  -223,    57,  8146
11418,  -222,    57,  8144
11428,  -223,    59,  8141
11438,  -232,    60,  8142
11448,  -227,    76,  8146
11458,  -231,    79,  8146
11468,  -232,    66,  8134
11478,  -230,    69,  8136
11488,  -227,    68,  8140
11498,  -228,    68,  8141
11508,  -232,    62,  8143
11518,  -233,    57,  8135
11528,  -232,    55,  8141
11538,  -227,    53,  8145
11548,  -225,    57,  8141
11558,  -226,    59,  8144
11568,  -233,    61,  8152
11578,  -236,    58,  8150
11588,  -238,    57,  8146
11598,  -237,    53,  8141
11608,  -232,    54,  8135
11618,  -230,    57,  8140
11628,  -254,   104,  8151
11638,  -276,    91,  8156
11649,  -227,    48,  8143
11658,  -217,    37,  8136
11668,  -220,    46,  8135
11679,  -231,    54,  8144
11689,  -224,    57,  8141
11699,  -222,    62,  8149
11709,  -225,    59,  8156
11719,  -230,    64,  8161
11729,  -231,    64,  8154
11739,  -232,    68,  8151
11749,  -242,    59,  8150
11759,  -247,    58,  8155
11769,  -243,    60,  8158
11778,  -245,    65,  8158
11788,  -250,    64,  8157
11798,  -247,    60,  8148
11809,  -244,    61,  8142
11818,  -246,    62,  8145
11828,  -251,    56,  8140
11838,  -242,    59,  8136
11849,  -234,    59,  8127
11858,  -235,    55,  8136
11868,  -234,    65,  8143
11878,  -239,    58,  8156
11888,  -235,    70,  8159
11898,  -233,    71,  8152
11908,  -231,    67,  8153
11918,  -235,    64,  8155
11928,  -240,    61,  8157
11938,  -246,    60,  8151
11948,  -249,    66,  8151
11958,  -236,    57,  8139
11968,  -231,    56,  8139
11978,  -229,    58,  8143
11988,  -237,    62,  8154
11998,  -241,    62,  8153
12008,  -243,    60,  8153
12018,  -245,    61,  8154
12028,  -239,    65,  8155
12039,  -232,    60,  8154
12048,  -226,    63,  8148
12058,  -224,    62,  8134
12069,  -222,    48,  8108
12078,  -227,    50,  8113
12086,  -232,    54,  8127
12096,  -244,    57,  8144
12106,  -248,    58,  8156
12116,  -248,    61,  8155
12126,  -248,    62,  8152
12136,  -246,    60,  8143
12146,  -243,    61,  8137
12156,  -239,    58,  8139
12166,  -241,    52,  8133
12176,  -241,    55,  8135
12186,  -242,    59,  8139
12196,  -245,    57,  8146
12206,  -246,    61,  8150
12216,  -251,    61,  8156
12226,  -248,    60,  8154
12236,  -245,    62,  8160
12246,  -247,    63,  8173
12256,  -243,    66,  8187
12266,  -237,    64,  8188
12276,  -203,    71,  8216
12286,  -199,    46,  8185
12296,  -178,    54,  8186
12306,  -210,    60,  8243
12316,  -257,     1,  8197
12326,  -237,    51,  8125
12336,  -207,    35,  8115
12346,  -197,    26,  8089
12356,  -215,    41,  8125
12366,  -243,    39,  8160
12376,  -252,    51,  8212
12386,  -258,    76,  8259
12397,  -198,    68,  8244
12406,  -180,    74,  8241
12416,  -235,    89,  8220
12426,  -271,    83,  8212
12436,  -274,    87,  8227
12446,  -238,    55,  8245
12457,  -186,    45,  8194
12466,  -210,    38,  8125
12476,  -241,    41,  8042
12486,  -263,    47,  7998
12496,  -240,    36,  8002
12506,  -202,    33,  8049
12517,  -216,    40,  8125
12526,  -247,    56,  8193
12536,  -279,    73,  8232
12546,  -282,    78,  8244
12556,  -244,    78,  8246
12566,  -235,    81,  8239
12576,  -257,    75,  8231
12586,  -276,    76,  8233
12597,  -264,    70,  8223
12606,  -229,    61,  8205
12616,  -224,    49,  8163
12626,  -240,    39,  8103
12637,  -284,    33,  8050
12646,  -299,    36,  8023
12656,  -301,    37,  8025
12667,  -270,    59,  8064
12676,  -298,    68,  8115
12687,  -301,    55,  8176
12696,  -279,    55,  8206
12707,  -224,    56,  8211
12717,  -193,    61,  8201
12726,  -177,    60,  8191
12736,  -189,    61,  8183
12747,  -203,    62,  8175
12757,  -199,    58,  8160
12767,  -189,    50,  8137
12777,  -190,    43,  8108
12790,  -205,    44,  8074
12800,  -221,    42,  8048
12810,  -230,    40,  8060
12820,  -223,    43,  8091
12830,  -221,    45,  8133
12840,  -238,    58,  8178
12850,  -254,    65,  8203
12860,  -249,    68,  8202
12870,  -236,    74,  8201
12880,  -232,    75,  8178
12889,  -235,    75,  8157
12899,  -246,    64,  8147
12909,  -255,    59,  8150
12919,  -248,    54,  8147
12929,  -239,    48,  8124
12939,  -243,    48,  8101
12949,  -252,    50,  8079
12959,  -255,    50,  8081
12969,  -245,    53,  8108
12979,  -231,    61,  8138
12990,  -224,    68,  8170
13000,  -231,    69,  8197
13009,  -234,    68,  8201
13020,  -233,    64,  8190
13030,  -225,    61,  8172
13040,  -220,    62,  8152
13050,  -231,    57,  8134
13059,  -233,    56,  8121
13070,  -237,    52,  8123
13080,  -220,    50,  8117
13092,  -207,    53,  8094
13103,  -203,    57,  8073
13113,  -213,    58,  8079
13123,  -230,    60,  8101
13133,  -245,    53,  8150
13143,  -258,    53,  8205
13154,  -261,    59,  8246
13164,  -268,    64,  8253
13175,  -264,    61,  8235
13185,  -257,    62,  8196
13193,  -249,    61,  8169
13201,  -245,    61,  8159
13210,  -247,    55,  8150
13220,  -248,    53,  8158
13230,  -244,    50,  8156
13240,  -240,    43,  8139
13250,  -244,    46,  8119
13260,  -248,    49,  8110
13270,  -247,    51,  8108
13280,  -250,    51,  8130
13290,  -247,    58,  8159
13300,  -245,    56,  8193
13310,  -238,    55,  8204
13320,  -253,    60,  8210
13330,  -258,    50,  8192
13340,  -254,    47,  8155
13351,  -248,    58,  8132
13360,  -236,    46,  8093
13370,  -233,    47,  8082
13380,  -229,    46,  8097
13391,  -235,    47,  8104
13401,  -241,    44,  8105
13411,  -247,    39,  8104
13421,  -252,    45,  8108
13431,  -243,    47,  8122
13441,  -240,    47,  8146
13451,  -242,    59,  8176
13461,  -248,    64,  8196
13472,  -251,    61,  8208
13482,  -252,    57,  8195
13491,  -251,    59,  8171
13502,  -255,    54,  8159
13512,  -257,    51,  8143
13522,  -251,    51,  8139
13532,  -248,    47,  8138
13542,  -246,    45,  8137
13552,  -247,    45,  8129
13562,  -245,    47,  8124
13572,  -241,    50,  8117
13582,  -235,    55,  8123
13591,  -235,    56,  8132
13600,  -234,    61,  8151
13610,  -241,    61,  8163
13620,  -247,    58,  8172
13631,  -248,    53,  8179
13641,  -247,    48,  8173
13650,  -246,    46,  8162
13660,  -251,    45,  8160
13670,  -258,    46,  8159
13681,  -260,    51,  8154
13690,  -262,    55,  8150
13700,  -248,    54,  8141
13709,  -232,    56,  8131
13720,  -236,    61,  8119
13730,  -236,    61,  8119
13739,  -237,    59,  8124
13750,  -243,    59,  8135
13760,  -244,    58,  8154
13770,  -245,    55,  8163
13779,  -252,    55,  8166
13791,  -251,    60,  8166
13800,  -246,    57,  8163
13810,  -249,    57,  8155
13820,  -257,    59,  8156
13830,  -256,    63,  8160
13841,  -247,    63,  8161
13850,  -246,    59,  8156
13860,  -247,    54,  8140
13871,  -243,    52,  8126
13881,  -245,    50,  8124
13891,  -245,    50,  8127
13901,  -244,    58,  8139
13911,  -239,    61,  8149
13921,  -234,    66,  8152
13931,  -233,    70,  8157
13940,  -231,    72,  8155
13950,  -233,    72,  8150
13960,  -234,    73,  8145
13971,  -239,    74,  8153
13981,  -246,    68,  8161
13991,  -249,    60,  8169
14001,  -251,    55,  8167
14011,  -255,    52,  8163
14021,  -256,    49,  8137
14031,  -253,    45,  8120
14042,  -251,    47,  8109
14052,  -247,    52,  8118
14063,  -245,    54,  8131
14072,  -252,    53,  8152
14082,  -257,    55,  8169
14091,  -258,    52,  8175
14101,  -262,    37,  8178
14111,  -225,    -4,  8202
14121,  -229,    -2,  8178
14130,  -273,     3,  8178
14140,  -282,    54,  8182
14150,  -271,   102,  8182
14160,  -260,   105,  8184
14171,  -257,    92,  8174
14181,  -255,    81,  8157
14191,  -253,    86,  8141
14201,  -162,    69,  8091
14211,  -117,    13,  8131
14221,   -80,   -11,  8139
14231,   -60,    -3,  8142
14241,   -75,    -3,  8155
14251,  -142,    28,  8158
14261,  -205,    43,  8165
14271,  -244,    52,  8157
14281,  -321,    70,  8173
14291,  -369,    77,  8172
14301,  -357,    79,  8167
14311,  -370,   111,  8169
14321,  -355,   109,  8154
14331,  -322,    95,  8144
14341,  -306,    85,  8147
14351,  -286,    76,  8138
14361,  -280,    43,  8139
14371,  -268,     8,  8134
14381,  -240,   -38,  8153
14391,  -219,   -98,  8168
14401,  -198,   -35,  8155
14411,  -198,    80,  8186
14421,  -241,   160,  8131
14432,  -289,   176,  8149
14442,  -281,   154,  8125
14452,  -267,   126,  8125
14462,  -235,    95,  8136
14472,  -211,    42,  8213
14482,  -215,   -69,  8259
14492,  -203,   -77,  8193
14502,  -352,   -50,  8174
14512,  -370,  -113,  8112
14522,  -299,   -23,  8176
14532,  -277,    37,  8188
14542,  -220,    99,  8189
14552,  -238,   109,  8177
14562,  -264,    93,  8167
14572,  -250,   110,  8169
14583,  -242,   155,  8155
14592,  -267,   134,  8149
14601,  -274,   116,  8149
14612,  -256,   133,  8141
14621,  -249,   133,  8141
14631,  -252,   144,  8157
14641,  -245,   137,  8163
14651,  -243,   127,  8158
14661,  -246,   106,  8150
14672,  -245,    89,  8143
14681,  -244,    87,  8140
14691,  -242,    86,  8144
14701,  -238,    75,  8149
14711,  -244,    80,  8142
14721,  -242,    64,  8134
14732,  -316,   174,  8229
14741,  -316,   276,  8289
14752,  -207,    11,  8123
14762,  -166,  -125,  8047
14771,  -148,  -158,  8048
14781,  -176,   -21,  8123
14791,  -215,    64,  8198
14801,  -228,    66,  8212
14811,  -227,    45,  8187
14821,  -206,   -22,  8118
14831,  -189,   -70,  8075
14841,  -200,   -30,  8120
14852,  -199,   -22,  8115
14862,  -206,    -3,  8135
14871,  -221,    29,  8140
14881,  -219,    13,  8114
14891,  -226,    27,  8106
14902,  -225,    34,  8114
14912,  -221,    17,  8121
14921,  -229,    35,  8151
14931,  -230,    51,  8177
14941,  -241,    61,  8191
14952,  -239,    73,  8188
14962,  -238,    88,  8172
14971,  -249,    89,  8160
14981,  -258,   100,  8163
14991,  -252,   100,  8163
15001,  -224,    45,  8154
15010,  -193,   -51,  8164
15021,  -197,   -77,  8153
15031,  -257,    36,  8118
15040,  -308,   117,  8105
15051,  -284,    92,  8091
15060,  -310,   112,  8121
15071,  -334,   118,  8141
15081,  -319,   108,  8163
15091,  -290,    95,  8180
15102,  -254,    80,  8177
15112,  -242,    76,  8161
15122,  -220,    77,  8141
15132,  -219,    81,  8124
15143,  -250,    93,  8121
15155,  -245,   101,  8111
15164,  -245,   105,  8104
15173,  -263,    78,  8116
15183,  -297,    65,  8126
15193,  -309,    47,  8121
15202,  -312,    55,  8116
15211,  -274,    66,  8122
15221,  -252,    79,  8139
15231,  -239,    89,  8152
15240,  -252,    93,  8174
15251,  -275,    79,  8192
15261,  -294,    72,  8187
15271,  -305,    25,  8177
15281,  -279,   -26,  8149
15291,  -260,    28,  8127
15302,  -264,    98,  8130
15312,  -267,   156,  8127
15322,  -256,   167,  8133
15333,  -285,   151,  8146
15343,  -303,   121,  8141
15353,  -247,   113,  8135
15363,  -233,   100,  8131
15373,  -227,    98,  8127
15383,  -201,    96,  8134
15393,  -200,   108,  8142
15402,  -165,   123,  8149
15411,  -162,   150,  8164
15421,  -176,   162,  8165
15431,  -234,   133,  8174
15441,  -252,   124,  8170
15451,  -287,   113,  8151
15461,  -289,   122,  8145
15471,  -265,   144,  8144
15481,  -181,   233,  8157
15491,  -154,   207,  8125
15502,  -188,   192,  8126
15513,  -246,   194,  8146
15523,  -287,   182,  8158
15533,  -274,   134,  8166
15543,  -309,    60,  8161
15553,  -332,    25,  8167
15563,  -333,     2,  8169
15573,  -280,    20,  8143
15583,  -254,    31,  8166
15593,  -221,    61,  8163
15603,  -209,   107,  8177
15613,  -202,   112,  8196
15623,  -273,    70,  8189
15633,  -321,   -19,  8172
15643,  -300,   -77,  8136
15653,  -316,   -74,  8132
15663,  -312,   -58,  8126
15673,  -270,     5,  8136
15684,  -236,    65,  8139
15693,  -266,    78,  8157
15701,  -307,    82,  8156
15711,  -415,    74,  8183
15722,  -403,    19,  8149
15731,  -396,    -5,  8165
15742,  -424,   -34,  8177
15751,  -420,   -63,  8169
15761,  -383,   -47,  8158
15771,  -324,   -10,  8156
15781,  -242,    31,  8182
15792,  -242,    63,  8183
15802,  -237,    40,  8164
15814,  -289,    -5,  8152
15823,  -287,   -31,  8139
15834,  -201,   -28,  8159
15844,  -155,   -16,  8146
15854,  -151,    30,  8177
15863,  -167,    51,  8170
15873,  -240,    77,  8176
15883,  -308,    71,  8147
15893,  -336,   -10,  8115
15903,  -391,   -42,  8139
15913,  -331,   -60,  8106
15923,  -154,   -54,  8108
15933,   -92,    -2,  8114
15943,  -144,    23,  8114
15954,  -208,    62,  8137
15964,  -297,    11,  8152
15974,  -311,   -39,  8128
15984,  -260,   -60,  8114
15993,  -221,   -18,  8126
16002,  -193,     4,  8163
16012,  -128,    -8,  8173
16022,   -85,    31,  8178
16032,  -148,   -23,  8158
16042,  -146,   -82,  8166
16053,  -122,   -28,  8162
16062,  -151,    -4,  8122
16072,  -142,   -22,  8094
16082,  -155,   -13,  8121
16093,  -157,     1,  8125
16103,  -172,    23,  8123
16113,  -187,    49,  8148
16123,  -307,    -1,  8167
16135,  -387,   -23,  8164
16144,  -379,   -53,  8159
16154,  -360,   -77,  8158
16164,  -264,   -49,  8151
16174,  -201,   -11,  8154
16184,  -147,    10,  8152
16193,  -145,   -18,  8131
16203,  -246,   -19,  8124
16212,  -375,   -76,  8112
16223,  -495,  -145,  8092
16234,  -473,  -152,  8110
16242,  -412,  -182,  8128
16253,  -358,  -175,  8134
16264,  -318,  -131,  8138
16273,  -255,  -103,  8141
16282,  -118,  -121,  8113
16292,  -118,   -97,  8144
16303,  -162,   -97,  8166
16313,  -170,  -105,  8152
16323,  -229,   -58,  8173
16333,  -219,   -86,  8171
16343,  -148,  -138,  8160
16354,  -115,  -135,  8147
16364,  -172,  -115,  8136
16374,  -189,   -75,  8139
16384,  -151,   -88,  8127
16394,  -140,   -57,  8131
16403,  -177,   -30,  8153
16412,  -123,   -41,  8145
16422,  -128,   -65,  8146
16433,  -141,     9,  8159
16443,  -178,    -5,  8164
16452,  -133,    35,  8154
16462,  -183,    -9,  8158
16473,  -211,  -105,  8162
16483,  -213,  -172,  8143
16493,  -253,  -307,  8149
16502,  -272,  -243,  8173
16513,  -262,  -262,  8140
16523,  -240,  -244,  8135
16534,  -242,  -170,  8132
16544,  -276,  -173,  8129
16554,  -297,  -217,  8105
16564,  -286,  -209,  8131
16574,  -289,  -276,  8146
16584,  -325,  -423,  8174
16593,  -336,  -463,  8149
16603,  -340,  -338,  8130
16613,  -353,  -181,  8155
16622,  -318,  -129,  8128
16633,  -281,   -71,  8122
16643,  -263,   -84,  8130
16653,  -217,   -92,  8136
16662,  -165,   -10,  8128
16672,  -166,   111,  8124
16683,  -174,   180,  8101
16693,  -157,   147,  8116
16703,  -146,    79,  8120
16713,  -181,    40,  8136
16723,  -155,    54,  8133
16733,  -179,   107,  8157
16743,  -187,   123,  8147
16753,  -211,    52,  8161
16763,  -218,     4,  8164
16774,  -227,   -30,  8161
16784,  -248,   -47,  8159
16794,  -242,   -17,  8156
16804,  -287,   -36,  8156
16813,  -320,   -46,  8158
16823,  -369,  -106,  8164
16834,  -366,  -155,  8140
16843,  -297,  -150,  8129
16853,  -317,  -137,  8123
16863,  -292,   -82,  8131
16873,  -296,   -74,  8135
16883,  -206,   -44,  8163
16893,  -232,   -73,  8167
16903,  -260,  -151,  8170
16913,  -216,  -186,  8167
16924,  -185,  -164,  8175
16934,  -224,  -229,  8175
16943,  -194,  -283,  8173
16954,  -166,  -179,  8185
16964,  -155,   -95,  8168
16974,  -131,   -42,  8154
16984,  -157,   -17,  8147
16994,  -191,  -161,  8148
17004,  -184,  -249,  8124
17015,  -169,  -274,  8131
17024,  -174,  -235,  8141
17034,  -137,   -80,  8121
17044,  -113,    29,  8146
17054,  -118,    21,  8165
17064,  -110,   -25,  8174
17074,  -119,  -116,  8166
17084,  -149,  -108,  8171
17094,  -192,     7,  8152
17104,  -229,   149,  8150
17114,  -258,   142,  8145
17123,  -293,    44,  8153
17133,  -308,   -15,  8155
17143,  -322,   -27,  8156
17153,  -323,   -30,  8165
17163,  -312,   -16,  8165
17173,  -327,   -65,  8169
17184,  -313,  -116,  8153
17193,  -292,  -109,  8157
17204,  -317,     4,  8155
17213,  -272,    22,  8141
17223,  -272,    37,  8131
17233,  -297,   -27,  8130
17243,  -266,   -84,  8128
17253,  -275,  -102,  8135
17264,  -283,  -153,  8137
17273,  -247,  -203,  8147
17283,  -246,  -180,  8148
17293,  -257,  -172,  8143
17304,  -233,   -95,  8131
17314,  -249,    60,  8133
17323,  -269,    89,  8133
17333,  -276,    -8,  8149
17343,  -238,    -5,  8155
17353,  -234,     2,  8179
17364,  -229,   -71,  8174
17374,  -236,  -114,  8166
17384,  -257,   -83,  8167
17394,  -263,  -133,  8166
17403,  -265,  -107,  8156
17413,  -273,   -83,  8147
17423,  -277,   -78,  8143
17433,  -305,   -99,  8143
17443,  -306,   -64,  8144
17453,  -297,    -9,  8120
17464,  -300,    21,  8138
17474,  -272,    12,  8142
17483,  -266,   -29,  8142
17493,  -252,   -94,  8145
17503,  -234,  -228,  8148
17514,  -196,  -316,  8151
17524,  -146,  -370,  8153
17534,  -163,  -281,  8148
17543,  -213,  -157,  8142
17553,  -265,   -28,  8138
17564,  -288,    45,  8137
17574,  -282,   118,  8139
17584,  -291,   116,  8149
17594,  -285,    33,  8155
17603,  -272,   -42,  8161
17613,  -264,   -60,  8156
17624,  -271,   -64,  8154
17634,  -274,   -86,  8151
17644,  -265,  -105,  8157
17654,  -289,     7,  8157
17665,  -297,    94,  8154
17675,  -290,    54,  8149
17685,  -288,    44,  8152
17695,  -293,    49,  8154
17706,  -290,    31,  8153
17715,  -295,    17,  8156
17723,  -303,    -9,  8162
17733,  -304,   -44,  8161
17742,  -301,   -63,  8161
17753,  -281,   -41,  8159
17763,  -261,   -37,  8159
17773,  -258,   -45,  8149
17783,  -264,   -44,  8141
17793,  -265,   -35,  8146
17803,  -269,   -16,  8155
17813,  -274,     0,  8161
17823,  -286,   -36,  8149
17833,  -314,   -72,  8149
17844,  -330,   -91,  8149
17854,  -312,  -101,  8135
17864,  -271,   -73,  8127
17873,  -265,   -63,  8130
17884,  -249,   -47,  8149
17894,  -221,   -41,  8155
17904,  -221,   -28,  8168
17914,  -240,   -61,  8164
17925,  -245,  -103,  8153
17935,  -248,  -102,  8142
17945,  -250,   -86,  8144
17955,  -254,   -76,  8142
17965,  -256,   -65,  8148
17975,  -255,   -61,  8152
17985,  -254,   -56,  8149
17995,  -260,   -54,  8149
18005,  -264,   -60,  8147
18015,  -264,   -68,  8142
18025,  -268,   -69,  8143
18035,  -269,   -68,  8146
18045,  -275,   -64,  8156
18055,  -313,   -94,  8163
18065,  -335,   -87,  8167
18075,  -305,   -89,  8155
18085,  -252,   -71,  8144
18095,  -232,   -64,  8132
18105,  -222,   -50,  8127
18115,  -220,   -46,  8139
18125,  -230,   -48,  8149
18135,  -239,   -52,  8151
18145,  -250,   -51,  8151
18155,  -253,   -55,  8152
18165,  -258,   -56,  8146
18175,  -258,   -59,  8145
18185,  -257,   -59,  8138
18195,  -259,   -64,  8145
18205,  -259,   -62,  8152
18215,  -258,   -57,  8162
18225,  -258,   -56,  8159
18235,  -263,   -60,  8159
18245,  -265,   -60,  8152
18255,  -263,   -59,  8138
18265,  -263,   -54,  8136
18275,  -258,   -50,  8132
18285,  -253,   -51,  8138
18295,  -252,   -53,  8141
18305,  -256,   -50,  8148
18315,  -256,   -51,  8152
18325,  -260,   -54,  8152
18335,  -259,   -61,  8149
18345,  -255,   -63,  8145
18355,  -252,   -59,  8146
18365,  -254,   -60,  8148
18375,  -253,   -65,  8154
18385,  -255,   -67,  8159
18395,  -254,   -67,  8163
18405,  -255,   -63,  8161
18415,  -253,   -60,  8151
18424,  -256,   -61,  8145
18433,  -257,   -62,  8147
18444,  -255,   -67,  8150
18453,  -253,   -64,  8151
18463,  -252,   -64,  8151
18474,  -251,   -65,  8148
18483,  -253,   -68,  8143
18493,  -258,   -72,  8139
18503,  -254,   -70,  8142
18513,  -259,   -71,  8142
18526,  -263,   -69,  8147
18536,  -263,   -67,  8151
18546,  -262,   -71,  8151
18556,  -260,   -73,  8153
18565,  -261,   -76,  8151
18575,  -260,   -76,  8147
18586,  -261,   -83,  8149
18596,  -262,   -83,  8146
18606,  -259,   -77,  8142
18616,  -257,   -74,  8157
18626,  -256,   -70,  8157
18636,  -256,   -73,  8159
18646,  -252,   -79,  8145
18656,  -249,   -71,  8142
18666,  -244,   -71,  8141
18676,  -244,   -66,  8140
18686,  -249,   -62,  8150
18696,  -255,   -67,  8151
18706,  -257,   -67,  8157
18716,  -259,   -63,  8156
18726,  -259,   -63,  8159
18736,  -255,   -63,  8159
18746,  -254,   -65,  8158
18756,  -260,   -68,  8150
18766,  -260,   -67,  8149
18776,  -264,   -69,  8153
18786,  -261,   -69,  8156
18796,  -260,   -69,  8152
18805,  -263,   -71,  8136
18816,  -264,   -70,  8131
18826,  -261,   -76,  8132
18835,  -261,   -74,  8129
18846,  -260,   -77,  8139
18856,  -261,   -75,  8150
18865,  -261,   -72,  8155
18875,  -261,   -70,  8161
18885,  -260,   -79,  8160
18895,  -259,   -83,  8155
18905,  -261,   -85,  8153
18915,  -263,   -81,  8153
18926,  -261,   -77,  8153
18936,  -257,   -74,  8147
18946,  -258,   -73,  8155
18956,  -256,   -74,  8148
18966,  -254,   -75,  8131
18976,  -251,   -74,  8127
18986,  -252,   -73,  8128
18996,  -257,   -77,  8137
19005,  -259,   -85,  8148
19016,  -261,   -79,  8152
19026,  -259,   -81,  8157
19036,  -252,   -75,  8167
19046,  -245,   -73,  8165
19056,  -243,   -72,  8159
19066,  -244,   -68,  8158
19075,  -248,   -66,  8155
19085,  -249,   -66,  8150
19095,  -246,   -64,  8140
19105,  -247,   -64,  8140
19116,  -248,   -66,  8150
19126,  -249,   -66,  8152
19136,  -251,   -65,  8149
19146,  -249,   -63,  8146
19156,  -246,   -63,  8148
19166,  -245,   -64,  8153
19176,  -243,   -71,  8154
19186,  -241,   -66,  8160
19196,  -242,   -69,  8164
19206,  -243,   -68,  8157
19216,  -245,   -76,  8147
19226,  -250,   -79,  8145
19236,  -251,   -79,  8145
19246,  -249,   -77,  8142
19256,  -248,   -74,  8138
19266,  -248,   -76,  8129
19276,  -249,   -76,  8131
19286,  -250,   -77,  8133
19296,  -256,   -77,  8132
19306,  -254,   -74,  8129
19316,  -251,   -75,  8130
19326,  -248,   -79,  8140
19336,  -243,   -76,  8152
19346,  -246,   -75,  8160
19356,  -245,   -71,  8161
19366,  -251,   -70,  8159
19376,  -251,   -71,  8144
19386,  -250,   -68,  8139
19396,  -252,   -65,  8138
19405,  -251,   -64,  8147
19416,  -254,   -63,  8151
19425,  -251,   -63,  8149
19437,  -255,   -69,  8141
19445,  -249,   -74,  8136
19455,  -249,   -70,  8141
19465,  -248,   -71,  8147
19475,  -251,   -70,  8159
19485,  -249,   -66,  8162
19495,  -247,   -71,  8168
19505,  -244,   -69,  8167
19515,  -243,   -65,  8162
19525,  -243,   -65,  8151
19537,  -248,   -73,  8148
19544,  -247,   -75,  8151
19554,  -244,   -76,  8159
19564,  -240,   -71,  8160
19575,  -238,   -69,  8160
19584,  -234,   -69,  8156
19594,  -233,   -70,  8146
19604,  -237,   -69,  8145
19614,  -240,   -70,  8149
19625,  -245,   -70,  8163
19636,  -245,   -75,  8169
19645,  -245,   -73,  8169
19655,  -244,   -72,  8158
19665,  -240,   -63,  8146
19675,  -236,   -66,  8140
19685,  -233,   -75,  8128
19696,  -237,   -67,  8132
19706,  -235,   -70,  8141
19716,  -235,   -69,  8150
19725,  -241,   -69,  8152
19735,  -249,   -73,  8156
19744,  -246,   -75,  8159
19755,  -247,   -74,  8154
19764,  -245,   -69,  8149
19774,  -240,   -68,  8144
19785,  -243,   -72,  8143
19795,  -246,   -66,  8157
19805,  -249,   -69,  8168
19815,  -250,   -76,  8167
19824,  -251,   -80,  8152
19835,  -254,   -76,  8137
19845,  -254,   -78,  8130
19854,  -252,   -75,  8126
19864,  -247,   -72,  8134
19875,  -246,   -73,  8139
19885,  -250,   -72,  8150
19895,  -251,   -71,  8158
19904,  -248,   -72,  8160
19915,  -252,   -70,  8159
19924,  -254,   -69,  8162
19935,  -248,   -70,  8155
19945,  -254,   -71,  8161
19955,  -252,   -67,  8158
19965,  -252,   -69,  8153
19976,  -254,   -74,  8148
19986,  -252,   -73,  8137
19996,  -250,   -72,  8127
20005,  -256,   -73,  8131
20015,  -257,   -67,  8143
20025,  -251,   -66,  8148
20032,  -252,   -66,  8155
20042,  -252,   -67,  8152
20052,  -250,   -67,  8148
20063,  -251,   -69,  8153
20072,  -245,   -71,  8154
20082,  -241,   -75,  8161
20092,  -248,   -73,  8161
20102,  -251,   -72,  8158
20113,  -254,   -68,  8147
20123,  -249,   -67,  8143
20132,  -249,   -66,  8138
20143,  -253,   -67,  8131
20153,  -254,   -61,  8130
20162,  -251,   -63,  8138
20172,  -252,   -71,  8154
20182,  -246,   -76,  8161
20193,  -250,   -79,  8164
20202,  -247,   -78,  8156
20212,  -242,   -78,  8154
20222,  -244,   -74,  8161
20233,  -243,   -66,  8166
20242,  -244,   -63,  8157
20252,  -247,   -65,  8151
20263,  -246,   -67,  8133
20273,  -248,   -69,  8116
20283,  -248,   -68,  8108
20293,  -244,   -70,  8115
20302,  -247,   -66,  8124
20313,  -248,   -68,  8132
20323,  -244,   -66,  8154
20333,  -240,   -65,  8161
20343,  -239,   -57,  8168
20352,  -229,   -56,  8165
20363,  -226,   -58,  8168
20372,  -226,   -61,  8172
20383,  -224,   -63,  8172
20393,  -228,   -61,  8178
20403,  -231,   -56,  8171
20413,  -238,   -56,  8160
20422,  -242,   -58,  8154
20433,  -245,   -57,  8140
20443,  -247,   -61,  8134
20453,  -243,   -62,  8137
20462,  -237,   -59,  8142
20473,  -233,   -57,  8146
20483,  -234,   -60,  8146
20493,  -235,   -62,  8152
20503,  -239,   -65,  8154
20512,  -240,   -62,  8149
20523,  -246,   -66,  8150
20533,  -247,   -65,  8153
20543,  -247,   -67,  8161
20553,  -249,   -69,  8157
20563,  -246,   -73,  8152
20573,  -244,   -72,  8149
20582,  -241,   -67,  8147
20593,  -246,   -67,  8150
20602,  -243,   -66,  8156
20613,  -242,   -70,  8166
20623,  -238,   -64,  8167
20633,  -241,   -61,  8168
20643,  -246,   -64,  8166
20653,  -243,   -67,  8158
20663,  -243,   -63,  8162
20673,  -243,   -57,  8166
20683,  -240,   -50,  8164
20693,  -244,   -45,  8173
20703,  -241,   -53,  8165
20713,  -237,   -59,  8155
20723,  -232,   -65,  8146
20736,  -239,   -60,  8150
20746,  -250,   -62,  8143
20756,  -256,   -63,  8138
20766,  -257,   -72,  8134
20776,  -255,   -72,  8123
20786,  -255,   -73,  8114
20796,  -259,   -71,  8114
20806,  -264,   -73,  8118
20816,  -265,   -77,  8127
20826,  -266,   -76,  8140
20836,  -265,   -74,  8153
20846,  -261,   -78,  8159
20856,  -256,   -82,  8169
20866,  -253,   -79,  8168
20876,  -251,   -78,  8157
20886,  -256,   -70,  8158
20896,  -263,   -55,  8162
20906,  -260,   -55,  8160
20916,  -251,   -58,  8150
20926,  -244,   -69,  8139
20936,  -240,   -67,  8128
20946,  -236,   -59,  8121
20956,  -232,   -46,  8120
20966,  -235,   -46,  8129
20977,  -237,   -44,  8146
20986,  -236,   -41,  8157
20996,  -235,   -42,  8170
21006,  -234,   -37,  8173
21016,  -238,   -38,  8171
21029,  -241,   -40,  8156
21037,  -242,   -42,  8153
21046,  -244,   -44,  8145
21057,  -244,   -47,  8146
21067,  -244,   -53,  8147
21077,  -245,   -56,  8143
21086,  -246,   -66,  8141
21096,  -250,   -69,  8133
21106,  -245,   -79,  8128
21116,  -245,   -80,  8128
21127,  -242,   -79,  8143
21137,  -234,   -86,  8153
21146,  -226,   -85,  8163
21157,  -225,   -85,  8164
21166,  -224,   -79,  8156
21176,  -230,   -82,  8145
21186,  -233,   -78,  8137
21196,  -233,   -78,  8131
21206,  -235,   -76,  8133
21216,  -236,   -71,  8144
21226,  -235,   -58,  8154
21236,  -236,   -55,  8159
21245,  -229,   -57,  8151
21256,  -230,   -52,  8137
21266,  -227,   -48,  8139
21276,  -226,   -51,  8148
21285,  -229,   -50,  8166
21296,  -224,   -46,  8176
21306,  -224,   -42,  8181
21316,  -226,   -44,  8173
21326,  -233,   -49,  8160
21336,  -234,   -51,  8153
21345,  -237,   -55,  8142
21356,  -235,   -53,  8128
21366,  -237,   -54,  8129
21375,  -243,   -56,  8145
21386,  -248,   -57,  8145
21396,  -252,   -68,  8141
21405,  -255,   -67,  8137
21416,  -318,   -38,  8048
21426,  -274,   -59,  8078
21435,  -242,   -84,  8107
21447,  -240,   -77,  8130
21456,  -253,   -94,  8150
21466,  -246,   -92,  8167
21476,  -244,   -85,  8167
21486,  -271,   -84,  8123
21496,  -240,   -85,  8129
21506,  -227,   -86,  8134
21516,  -221,   -75,  8139
21526,  -219,   -67,  8142
21535,  -223,   -61,  8134
21546,  -226,   -55,  8142
21556,  -228,   -54,  8141
21566,  -233,   -46,  8141
21576,  -236,   -43,  8143
21586,  -238,   -36,  8151
21595,  -240,   -34,  8158
21606,  -242,   -35,  8167
21616,  -245,   -39,  8176
21626,  -252,   -38,  8180
21636,  -288,   -70,  8223
21648,  -276,   -61,  8223
21658,  -255,   -69,  8181
21668,  -294,   -40,  8169
21677,  -283,   -56,  8157
21687,  -333,   -34,  8172
21697,  -397,   -19,  8181
21707,  -342,   -84,  8172
21718,  -318,   -80,  8167
21728,  -231,   -95,  8154
21738,  -147,  -112,  8150
21746,  -138,  -105,  8153
21756,  -166,   -95,  8158
21766,  -187,   -55,  8165
21776,  -222,   -79,  8115
21786,  -199,   -90,  8140
21796,  -203,   -78,  8144
21806,  -291,   -23,  8210
21816,  -369,    -4,  8236
21826,  -208,  -119,  8225
21836,  -208,  -103,  8207
21847,  -245,   -46,  8201
21858,  -353,    -6,  8233
21867,  -313,   -16,  8226
21877,  -221,   -63,  8211
21888,  -201,   -54,  8191
21898,  -242,   -37,  8172
21908,  -291,    21,  8185
21918,  -259,   -24,  8179
21927,  -222,   -29,  8167
21938,  -340,     1,  8171
21948,  -263,   -62,  8187
21957,  -337,   -13,  8185
21967,  -384,   -40,  8176
21977,  -295,   -82,  8159
21987,  -177,  -132,  8145
21997,  -301,   -23,  8160
22007,  -286,   -71,  8132
22017,  -197,  -119,  8122
22027,  -152,   -31,  8134
22037,  -143,   -19,  8119
22046,  -163,   -26,  8119
22056,  -164,   -38,  8117
22066,  -218,   -23,  8118
22076,  -191,     7,  8130
22086,  -268,   -70,  8147
22096,  -315,  -132,  8159
22106,  -360,  -131,  8170
22116,  -400,  -157,  8187
22126,  -359,  -166,  8171
22137,  -278,  -150,  8153
22148,  -318,  -157,  8147
22160,  -316,  -172,  8135
22170,  -350,  -143,  8144
22180,  -288,  -110,  8140
22191,  -239,   -69,  8141
22201,  -272,   -81,  8162
22211,  -248,  -171,  8132
22222,  -220,  -225,  8138
22232,  -229,  -237,  8143
22242,  -264,  -324,  8171
22248,  -303,  -434,  8164
22254,  -258,  -503,  8167
22264,  -229,  -475,  8187
22274,  -187,  -485,  8153
22284,  -235,  -348,  8188
22294,  -254,  -220,  8199
22304,  -232,  -123,  8180
22314,  -303,   -42,  8169
22324,  -283,    78,  8166
22334,  -199,   164,  8124
22344,  -182,   232,  8117
22354,  -245,    97,  8106
22364,  -252,    67,  8119
22374,  -197,    25,  8111
22384,  -194,   153,  8137
22394,  -216,   172,  8130
22404,  -225,   202,  8138
22414,  -266,   128,  8144
22424,  -286,    93,  8147
22434,  -269,   116,  8152
22444,  -281,    21,  8142
22454,  -284,    31,  8151
22464,  -254,   -15,  8136
22474,  -239,     9,  8137
22484,  -228,   -32,  8122
22494,  -245,   -11,  8138
22504,  -241,    44,  8136
22514,  -290,   -18,  8144
22524,  -327,  -114,  8132
22534,  -286,  -110,  8126
22544,  -363,  -148,  8179
22554,  -314,   -74,  8190
22565,  -340,  -135,  8170
22574,  -350,  -163,  8163
22585,  -281,   -97,  8159
22595,  -298,  -121,  8151
22605,  -250,    -8,  8155
22614,  -245,    21,  8158
22624,  -240,    15,  8156
22634,  -240,    18,  8159
22644,  -189,    35,  8136
22654,  -247,    80,  8177
22664,  -224,    45,  8128
22675,  -163,    20,  8087
22685,  -175,   -10,  8083
22694,  -224,   -34,  8132
22704,  -262,   -64,  8158
22714,  -267,   -89,  8178
22724,  -294,   -99,  8188
22734,  -329,  -145,  8175
22744,  -351,  -175,  8153
22755,  -356,  -203,  8129
22765,  -351,  -214,  8131
22774,  -341,  -184,  8106
22784,  -315,  -137,  8125
22794,  -329,   -87,  8150
22804,  -399,  -134,  8160
22815,  -379,  -116,  8140
22824,  -385,  -141,  8154
22835,  -359,   -95,  8165
22845,  -386,   -73,  8183
22855,  -428,  -106,  8203
22864,  -391,  -160,  8214
22875,  -344,  -133,  8181
22885,  -334,  -118,  8172
22895,  -369,  -175,  8148
22904,  -345,  -123,  8172
22915,  -274,   -83,  8128
22924,  -289,   -68,  8126
22935,  -298,   -63,  8126
22944,  -293,   -84,  8134
22957,  -299,   -53,  8168
22968,  -292,   -53,  8157
22978,  -279,   -66,  8158
22988,  -286,   -74,  8134
22998,  -244,  -189,  8091
23008,  -282,  -102,  8150
23018,  -299,  -118,  8162
23028,  -302,  -188,  8161
23037,  -323,  -224,  8156
23048,  -356,  -192,  8164
23057,  -339,  -141,  8151
23067,  -270,  -105,  8122
23077,  -274,  -106,  8106
23087,  -308,   -67,  8096
23097,  -350,   -47,  8137
23107,  -320,   -25,  8162
23118,  -320,    28,  8179
23127,  -275,   -46,  8150
23137,  -260,   -64,  8134
23147,  -272,   -61,  8134
23157,  -243,    26,  8137
23167,  -293,    36,  8171
23177,  -349,   -47,  8179
23187,  -370,   -49,  8185
23197,  -332,   -31,  8192
23207,  -322,   -83,  8178
23217,  -287,   -84,  8154
23227,  -243,   -84,  8116
23237,  -277,  -128,  8109
23247,  -322,  -140,  8126
23257,  -332,  -186,  8135
23267,  -329,  -196,  8129
23278,  -352,  -173,  8135
23287,  -315,  -110,  8139
23297,  -338,   -89,  8172
23307,  -306,   -62,  8197
23317,  -254,   -42,  8183
23327,  -202,    -7,  8180
23337,  -176,    16,  8177
23347,  -210,   -42,  8166
23357,  -212,   -53,  8159
23367,  -217,   -58,  8144
23377,  -224,   -88,  8135
23387,  -301,   -62,  8175
23397,  -314,   -71,  8170
23407,  -326,    -4,  8168
23418,  -319,     2,  8142
23428,  -352,   -47,  8159
23437,  -361,  -123,  8155
23447,  -375,  -138,  8161
23458,  -371,  -122,  8167
23468,  -355,  -112,  8163
23478,  -355,  -119,  8176
23489,  -354,   -90,  8178
23499,  -336,   -85,  8160
23509,  -344,   -66,  8167
23519,  -358,   -53,  8174
23528,  -377,   -78,  8187
23538,  -376,   -69,  8173
23548,  -374,   -84,  8148
23557,  -377,  -103,  8135
23567,  -398,  -168,  8129
23578,  -412,  -246,  8119
23587,  -401,  -250,  8143
23598,  -401,  -322,  8145
23608,  -390,  -355,  8139
23617,  -378,  -422,  8160
23628,  -383,  -457,  8171
23637,  -345,  -350,  8166
23647,  -320,  -272,  8162
23656,  -263,  -269,  8154
23665,  -229,  -211,  8162
23675,  -234,  -204,  8180
23685,  -220,  -264,  8177
23695,  -244,  -278,  8183
23705,  -228,  -322,  8179
23715,  -184,  -427,  8164
23725,  -208,  -302,  8154
23735,  -260,  -131,  8145
23745,  -283,    -6,  8164
23755,  -312,  -100,  8176
23765,  -320,  -137,  8183
23775,  -329,   -69,  8162
23785,  -378,   108,  8145
23795,  -438,    93,  8116
23805,  -465,    83,  8125
23815,  -474,   116,  8130
23825,  -488,   111,  8147
23835,  -456,    61,  8170
23845,  -413,    11,  8172
23855,  -443,    53,  8175
23866,  -454,    76,  8156
23876,  -452,    90,  8129
23885,  -465,   155,  8121
23895,  -462,   162,  8125
23905,  -434,   145,  8134
23916,  -436,   107,  8138
23925,  -461,    70,  8156
23935,  -457,    33,  8147
23945,  -417,    12,  8148
23956,  -377,   -20,  8133
23965,  -368,   -28,  8140
23975,  -354,   -61,  8138
23986,  -352,   -74,  8148
23996,  -372,   -89,  8160
24006,  -366,  -104,  8147
24015,  -349,  -111,  8137
24025,  -357,   -97,  8130
24035,  -358,   -77,  8125
24045,  -337,   -53,  8135
24056,  -304,   -20,  8142
24066,  -318,   -23,  8157
24075,  -341,   -19,  8165
24086,  -363,    12,  8159
24095,  -302,    63,  8140
24105,  -325,    48,  8157
24115,  -328,     6,  8143
24125,  -328,   -17,  8141
24135,  -372,  -120,  8141
24146,  -384,  -174,  8132
24156,  -371,  -165,  8128
24166,  -390,  -183,  8127
24175,  -397,  -189,  8124
24185,  -399,  -164,  8133
24195,  -411,  -170,  8136
24206,  -412,  -181,  8135
24216,  -415,  -186,  8132
24226,  -420,  -182,  8132
24235,  -415,  -163,  8143
24245,  -407,  -145,  8145
24255,  -404,  -130,  8143
24266,  -398,  -113,  8139
24276,  -395,  -100,  8138
24286,  -396,   -85,  8125
24295,  -394,   -79,  8122
24305,  -388,   -80,  8122
24316,  -382,   -76,  8130
24325,  -383,   -76,  8141
24336,  -386,   -76,  8150
24346,  -380,   -76,  8155
24356,  -377,   -83,  8148
24369,  -376,   -83,  8141
24378,  -371,   -88,  8136
24389,  -372,   -91,  8144
24399,  -376,   -91,  8149
24409,  -375,   -90,  8158
24419,  -374,   -90,  8165
24429,  -378,   -84,  8170
24439,  -388,   -85,  8159
24449,  -390,   -83,  8137
24459,  -387,   -79,  8129
24466,  -385,   -80,  8132
24476,  -384,   -80,  8139
24486,  -384,   -83,  8145
24496,  -389,   -83,  8153
24506,  -387,   -85,  8151
24516,  -383,   -90,  8148
24526,  -386,   -84,  8139
24536,  -389,   -82,  8133
24546,  -390,   -80,  8135
24556,  -390,   -80,  8141
24566,  -387,   -79,  8155
24576,  -387,   -76,  8156
24586,  -393,   -70,  8144
24596,  -394,   -74,  8138
24606,  -394,   -78,  8134
24616,  -396,  -128,  8146
24626,  -385,  -103,  8154
24636,  -396,   -59,  8142
24646,  -402,   -40,  8133
24656,  -406,   -51,  8144
24666,  -406,   -71,  8150
24676,  -417,   -66,  8160
24686,  -412,   -94,  8163
24696,  -413,   -99,  8165
24706,  -410,  -114,  8153
24716,  -411,  -115,  8151
24726,  -396,  -139,  8139
24736,  -393,  -142,  8134
24746,  -389,  -168,  8142
24756,  -388,  -198,  8145
24766,  -390,  -233,  8146
24776,  -370,  -352,  8139
24786,  -345,  -367,  8141
24796,  -361,  -265,  8141
24806,  -375,  -159,  8151
24816,  -363,  -170,  8149
24826,  -351,   -92,  8162
24836,  -342,   -37,  8154
24846,  -330,   -72,  8150
24856,  -304,  -162,  8144
24866,  -320,   -69,  8140
24876,  -342,   -33,  8129
24886,  -351,   -13,  8117
24896,  -371,    68,  8093
24906,  -453,   237,  8095
24916,  -452,   184,  8107
24926,  -445,   113,  8132
24936,  -434,    54,  8147
24946,  -426,    15,  8158
24956,  -421,   -16,  8156
24966,  -414,   -37,  8149
24976,  -404,   -49,  8143
24986,  -398,   -66,  8144
24996,  -394,   -71,  8147
25006,  -391,   -76,  8151
25017,  -395,   -79,  8153
25026,  -395,   -81,  8147
25036,  -399,   -85,  8144
25046,  -396,   -87,  8138
25056,  -397,   -88,  8132
25066,  -397,   -82,  8132
25076,  -395,   -78,  8131
25086,  -396,   -78,  8133
25096,  -393,   -79,  8148
25106,  -395,   -66,  8158
25116,  -399,   -80,  8162
25126,  -402,   -85,  8164
25136,  -398,   -81,  8159
25146,  -393,   -81,  8151
25158,  -388,   -78,  8136
25166,  -382,   -77,  8137
25180,  -383,   -77,  8142
25190,  -397,   -80,  8145
25200,  -403,   -80,  8138
25211,  -408,   -74,  8126
25221,  -410,   -74,  8117
25230,  -415,   -75,  8113
25240,  -417,   -75,  8113
25251,  -419,   -75,  8132
25260,  -422,   -74,  8151
25270,  -423,   -70,  8164
25279,  -424,   -72,  8170
25289,  -427,   -74,  8163
25299,  -431,   -72,  8149
25308,  -431,   -72,  8138
25319,  -430,   -77,  8142
25329,  -427,   -80,  8145
25339,  -428,   -78,  8147
25348,  -428,   -71,  8148
25359,  -422,   -72,  8142
25369,  -418,   -71,  8138
25379,  -414,   -66,  8131
25389,  -420,   -71,  8126
25399,  -423,   -77,  8130
25409,  -421,   -81,  8142
25419,  -423,   -77,  8152
25429,  -420,   -85,  8154
25439,  -417,   -91,  8157
25449,  -414,   -90,  8154
25459,  -406,   -88,  8140
25469,  -404,   -89,  8136
25479,  -403,   -87,  8132
25489,  -410,   -80,  8136
25499,  -419,   -72,  8141
25509,  -413,   -72,  8144
25519,  -416,   -71,  8137
25529,  -417,   -70,  8140
25539,  -418,   -75,  8136
25549,  -426,   -78,  8134
25559,  -425,   -76,  8140
25569,  -426,   -79,  8141
25581,  -431,   -80,  8147
25590,  -432,   -75,  8150
25600,  -436,   -76,  8147
25610,  -438,   -75,  8142
25620,  -440,   -71,  8136
25630,  -445,   -71,  8129
25639,  -439,   -72,  8126
25650,  -433,   -73,  8128
25660,  -433,   -74,  8128
25670,  -429,   -74,  8129
25677,  -428,   -74,  8131
25687,  -422,   -75,  8134
25697,  -422,   -76,  8135
25706,  -421,   -73,  8136
25717,  -418,   -73,  8139
25727,  -419,   -70,  8149
25737,  -416,   -75,  8157
25747,  -416,   -76,  8157
25757,  -414,   -83,  8154
25767,  -414,   -85,  8152
25777,  -411,   -82,  8142
25787,  -409,   -79,  8137
25797,  -408,   -83,  8141
25807,  -412,   -80,  8139
25817,  -410,   -81,  8133
25827,  -411,   -83,  8128
25837,  -417,   -82,  8128
25847,  -419,   -80,  8129
25857,  -422,   -78,  8131
25867,  -425,   -76,  8139
25877,  -426,   -78,  8148
25887,  -430,   -74,  8145
25897,  -424,   -75,  8141
25907,  -421,   -76,  8137
25917,  -423,   -82,  8134
25927,  -421,   -83,  8135
25937,  -418,   -83,  8133
25947,  -422,   -83,  8138
25957,  -422,   -79,  8145
25967,  -417,   -78,  8146
25977,  -417,   -79,  8146
25987,  -418,   -76,  8142
25997,  -417,   -79,  8137
26007,  -416,   -80,  8140
26017,  -408,   -78,  8143
26027,  -405,   -80,  8150
26037,  -406,   -78,  8155
26047,  -403,   -78,  8160
26057,  -401,   -79,  8158
26067,  -405,   -81,  8148
26077,  -404,   -85,  8137
26087,  -408,   -82,  8129
26097,  -405,   -77,  8127
26107,  -403,   -79,  8127
26117,  -405,   -78,  8136
26127,  -410,   -73,  8141
26137,  -409,   -76,  8133
26147,  -414,   -84,  8129
26157,  -414,   -84,  8129
26167,  -416,   -84,  8133
26177,  -420,   -82,  8148
26187,  -423,   -80,  8161
26197,  -426,   -76,  8158
26207,  -430,   -76,  8143
26217,  -429,   -77,  8131
26227,  -424,   -77,  8126
26237,  -418,   -80,  8128
26247,  -417,   -81,  8130
26257,  -419,   -85,  8130
26267,  -417,   -85,  8134
26277,  -417,   -85,  8136
26288,  -411,   -84,  8145
26297,  -414,   -85,  8146
26307,  -412,   -88,  8141
26317,  -410,   -86,  8136
26327,  -407,   -82,  8134
26337,  -401,   -83,  8136
26347,  -398,   -82,  8144
26357,  -399,   -83,  8139
26367,  -398,   -85,  8137
26377,  -400,   -87,  8133
26389,  -407,   -84,  8129
26399,  -412,   -84,  8121
26410,  -406,   -86,  8125
26420,  -411,   -87,  8133
26430,  -409,   -90,  8138
26439,  -408,   -90,  8140
26450,  -413,   -87,  8142
26459,  -417,   -85,  8135
26470,  -416,   -90,  8129
26484,  -419,   -89,  8127
26492,  -420,   -91,  8128
26500,  -423,   -90,  8133
26511,  -422,   -86,  8137
26520,  -422,   -89,  8141
26530,  -421,   -89,  8144
26541,  -422,   -87,  8141
26551,  -417,   -87,  8132
26560,  -412,   -81,  8127
26569,  -411,   -81,  8126
26580,  -413,   -83,  8135
26591,  -412,   -84,  8140
26601,  -410,   -81,  8141
26611,  -412,   -81,  8139
26621,  -414,   -76,  8139
26631,  -409,   -76,  8146
26641,  -404,   -80,  8146
26650,  -397,   -82,  8151
26660,  -396,   -83,  8145
26670,  -399,   -84,  8145
26680,  -400,   -87,  8143
26688,  -400,   -87,  8145
26698,  -397,   -87,  8147
26707,  -401,   -89,  8145
26718,  -398,   -86,  8152
26728,  -399,   -91,  8154
26738,  -402,   -90,  8147
26747,  -406,   -93,  8140
26757,  -402,   -90,  8139
26768,  -399,   -87,  8140
26778,  -397,   -92,  8133
26788,  -396,   -92,  8130
26798,  -393,   -89,  8137
26808,  -387,   -90,  8143
26817,  -386,   -91,  8142
26828,  -382,   -96,  8140
26838,  -381,   -95,  8132
26848,  -384,   -93,  8131
26858,  -384,   -93,  8131
26867,  -385,   -93,  8137
26878,  -389,   -88,  8136
26888,  -388,   -87,  8140
26898,  -387,   -84,  8145
26908,  -389,   -81,  8139
26918,  -391,   -80,  8134
26928,  -391,   -82,  8134
26938,  -394,   -80,  8136
26948,  -398,   -85,  8137
26958,  -396,   -84,  8135
26968,  -393,   -85,  8137
26978,  -394,   -82,  8145
26988,  -395,   -83,  8144
26998,  -401,   -80,  8145
27008,  -399,   -80,  8149
27018,  -399,   -81,  8149
27028,  -398,   -84,  8137
27038,  -401,   -88,  8132
27048,  -399,   -85,  8133
27058,  -402,   -81,  8139
27068,  -404,   -76,  8132
27078,  -403,   -79,  8128
27088,  -401,   -83,  8131
27098,  -400,   -84,  8131
27108,  -398,   -87,  8135
27118,  -401,   -85,  8141
27128,  -401,   -85,  8137
27138,  -395,   -81,  8138
27148,  -391,   -80,  8134
27158,  -387,   -80,  8125
27168,  -389,   -84,  8131
27178,  -396,   -81,  8142
27188,  -391,   -83,  8149
27198,  -383,   -82,  8148
27208,  -381,   -81,  8147
27218,  -387,   -77,  8139
27228,  -385,   -78,  8132
27238,  -386,   -82,  8138
27248,  -389,   -79,  8148
27258,  -396,   -77,  8159
27268,  -400,   -74,  8167
27278,  -398,   -77,  8168
27288,  -402,   -70,  8155
27298,  -404,   -75,  8139
27308,  -400,   -80,  8129
27318,  -398,   -82,  8124
27328,  -399,   -81,  8125
27338,  -402,   -81,  8131
27348,  -406,   -82,  8137
27358,  -407,   -83,  8139
27368,  -409,   -80,  8138
27378,  -406,   -81,  8131
27389,  -398,   -85,  8133
27401,  -396,   -81,  8138
27412,  -392,   -83,  8144
27422,  -389,   -82,  8155
27431,  -389,   -85,  8161
27441,  -383,   -94,  8161
27451,  -377,   -95,  8154
27461,  -375,  -100,  8143
27472,  -372,  -102,  8131
27481,  -374,  -100,  8121
27491,  -374,  -100,  8119
27500,  -375,  -102,  8122
27510,  -374,  -102,  8125
27521,  -373,   -99,  8127
27531,  -373,  -101,  8123
27540,  -373,  -101,  8122
27551,  -371,   -98,  8125
27560,  -369,  -100,  8130
27570,  -366,   -97,  8145
27581,  -370,   -99,  8147
27591,  -378,  -102,  8159
27600,  -377,  -104,  8163
27611,  -373,  -100,  8153
27621,  -372,   -96,  8143
27631,  -374,  -100,  8131
27641,  -378,   -95,  8129
27651,  -384,   -96,  8130
27661,  -381,   -95,  8131
27670,  -382,   -97,  8136
27681,  -379,   -96,  8135
27691,  -380,   -94,  8132
27698,  -379,   -90,  8132
27708,  -376,   -89,  8121
27718,  -374,   -84,  8119
27728,  -377,   -83,  8128
27738,  -380,   -86,  8143
27748,  -382,   -87,  8151
27759,  -381,   -90,  8150
27768,  -381,   -96,  8148
27779,  -379,   -96,  8142
27788,  -375,   -94,  8137
27798,  -368,   -94,  8138
27809,  -366,   -93,  8140
27818,  -367,   -92,  8140
27828,  -369,   -91,  8142
27838,  -372,   -91,  8142
27848,  -376,   -87,  8129
27858,  -379,   -85,  8121
27868,  -380,   -83,  8121
27878,  -377,   -89,  8123
27888,  -371,   -87,  8124
27899,  -370,   -84,  8132
27908,  -374,   -86,  8140
27918,  -378,   -89,  8138
27929,  -377,   -94,  8139
27938,  -374,   -98,  8143
27949,  -375,   -99,  8141
27959,  -375,   -98,  8144
27968,  -375,   -92,  8134
27979,  -375,   -84,  8136
27989,  -378,   -83,  8138
27998,  -382,   -88,  8143
28009,  -387,   -86,  8138
28018,  -386,   -84,  8134
28029,  -383,   -84,  8134
28039,  -379,   -84,  8134
28049,  -382,   -87,  8137
28059,  -383,   -87,  8143
28069,  -383,   -87,  8147
28078,  -381,   -85,  8156
28089,  -379,   -84,  8155
28099,  -378,   -78,  8153
28109,  -386,   -80,  8155
28118,  -387,   -81,  8152
28129,  -380,   -83,  8156
28138,  -381,   -88,  8154
28149,  -382,   -90,  8145
28159,  -382,   -91,  8138
28169,  -384,   -88,  8131
28178,  -386,   -83,  8128
28189,  -393,   -77,  8131
28199,  -395,   -80,  8134
28209,  -400,   -77,  8139
28218,  -406,   -77,  8144
28229,  -409,   -77,  8151
28239,  -404,   -79,  8158
28249,  -393,   -86,  8158
28259,  -391,   -88,  8155
28269,  -386,   -91,  8145
28279,  -385,   -90,  8135
28289,  -390,   -88,  8132
28298,  -393,   -91,  8136
28309,  -388,   -93,  8141
28319,  -384,   -93,  8142
28329,  -377,   -90,  8143
28339,  -379,   -91,  8135
28349,  -383,   -88,  8132
28359,  -386,   -83,  8132
28369,  -388,   -84,  8136
28379,  -392,   -81,  8142
28389,  -393,   -81,  8146
28399,  -390,   -81,  8144
28411,  -392,   -82,  8138
28421,  -388,   -87,  8132
28431,  -383,   -87,  8137
28441,  -377,   -86,  8134
28451,  -380,   -89,  8137
28461,  -382,   -92,  8138
28471,  -385,   -89,  8146
28482,  -390,   -87,  8148
28491,  -387,   -89,  8142
28501,  -387,   -89,  8138
28512,  -385,   -93,  8134
28522,  -388,   -99,  8133
28531,  -382,   -98,  8139
28541,  -382,   -93,  8142
28552,  -386,   -94,  8145
28561,  -390,   -94,  8139
28571,  -390,   -94,  8137
28582,  -395,   -92,  8144
28591,  -397,   -96,  8139
28601,  -405,  -131,  8138
28609,  -399,  -128,  8138
28619,  -406,  -139,  8135
28629,  -401,  -138,  8137
28639,  -401,  -132,  8138
28649,  -396,  -135,  8125
28659,  -393,  -131,  8130
28669,  -391,  -133,  8139
28679,  -396,  -145,  8148
28689,  -389,  -132,  8151
28699,  -386,  -112,  8159
28709,  -374,  -101,  8154
28719,  -381,  -113,  8155
28729,  -389,  -133,  8154
28739,  -377,  -116,  8140
28749,  -357,   -79,  8138
28759,  -335,   -47,  8148
28769,  -311,   -34,  8160
28779,  -298,   -35,  8163
28789,  -331,   -59,  8159
28799,  -322,   -74,  8145
28809,  -322,   -79,  8142
28819,  -347,   -94,  8147
28829,  -357,   -77,  8153
28839,  -368,   -98,  8160
28850,  -370,  -100,  8167
28859,  -383,   -96,  8171
28869,  -382,  -114,  8158
28879,  -366,  -113,  8151
28889,  -330,  -103,  8149
28899,  -349,  -109,  8151
28909,  -381,   -99,  8160
28919,  -384,   -86,  8154
28929,  -424,   -84,  8154
28940,  -418,   -66,  8155
28949,  -398,   -59,  8146
28959,  -395,   -51,  8145
28969,  -407,   -65,  8161
28979,  -392,   -37,  8158
28989,  -430,   -33,  8172
28999,  -441,   -28,  8166
29010,  -462,   -35,  8159
29019,  -487,   -37,  8156
29030,  -502,   -85,  8141
29039,  -506,  -120,  8133
29049,  -507,  -187,  8128
29059,  -501,  -236,  8128
29069,  -514,  -296,  8144
29080,  -485,  -279,  8140
29089,  -476,  -258,  8139
29099,  -451,  -210,  8137
29109,  -469,  -186,  8141
29120,  -432,  -130,  8120
29130,  -457,  -123,  8134
29140,  -445,   -99,  8128
29149,  -445,   -76,  8142
29160,  -465,   -78,  8144
29169,  -463,   -40,  8142
29179,  -416,     6,  8132
29189,  -403,    13,  8131
29199,  -389,    -5,  8134
29209,  -357,    24,  8119
29220,  -321,    57,  8134
29229,  -311,    55,  8142
29240,  -334,    -4,  8136
29250,  -342,   -17,  8144
29260,  -379,    36,  8136
29270,  -422,    96,  8140
29279,  -465,   106,  8148
29289,  -502,   110,  8158
29300,  -470,    92,  8146
29310,  -438,    98,  8157
29323,  -427,   115,  8158
29333,  -430,   114,  8148
29343,  -422,    41,  8138
29353,  -380,   -58,  8132
29363,  -417,  -116,  8142
29373,  -416,  -154,  8141
29383,  -377,  -215,  8131
29393,  -379,  -213,  8139
29402,  -397,  -265,  8135
29413,  -365,  -225,  8141
29422,  -427,  -180,  8150
29432,  -416,  -225,  8157
29442,  -368,  -292,  8161
29452,  -343,  -357,  8164
29462,  -352,  -285,  8169
29472,  -350,  -142,  8164
29482,  -371,   -49,  8166
29492,  -385,   -18,  8164
29502,  -373,  -126,  8144
29512,  -334,  -170,  8109
29522,  -363,   -64,  8093
29532,  -413,    -5,  8083
29542,  -390,   -11,  8090
29552,  -377,     7,  8088
29562,  -373,    32,  8131
29572,  -394,   -53,  8137
29582,  -361,  -134,  8135
29592,  -303,  -211,  8146
29602,  -219,  -279,  8152
29612,  -180,  -270,  8142
29623,  -222,   -87,  8157
29633,  -253,    40,  8156
29643,  -277,    45,  8141
29653,  -263,    20,  8125
29663,  -251,    36,  8111
29673,  -265,    22,  8106
29683,  -276,  -130,  8099
29693,  -263,  -211,  8125
29703,  -290,  -244,  8155
29713,  -292,  -254,  8159
29723,  -265,  -102,  8141
29733,  -230,    84,  8157
29743,  -222,    83,  8167
29756,  -210,    43,  8158
29764,  -203,   109,  8164
29773,  -245,    57,  8178
29783,  -269,     8,  8179
29793,  -301,   -67,  8172
29803,  -342,  -206,  8173
29813,  -359,  -294,  8165
29824,  -333,  -293,  8143
29834,  -330,  -205,  8147
29845,  -328,  -154,  8160
29854,  -312,   -75,  8166
29864,  -335,   -75,  8156
29874,  -349,   -98,  8151
29884,  -374,  -154,  8171
29894,  -390,  -180,  8170
29904,  -407,  -273,  8181
29915,  -377,  -265,  8169
29923,  -374,  -243,  8181
29933,  -363,  -281,  8160
29943,  -351,  -254,  8151
29953,  -329,  -211,  8141
29963,  -302,  -141,  8146
29973,  -306,  -111,  8156
29983,  -291,   -87,  8159
29993,  -319,  -130,  8152
30004,  -319,  -112,  8134
30013,  -295,   -25,  8138
30022,  -305,   -22,  8148
30033,  -311,   -38,  8145
30042,  -287,    13,  8137
30052,  -258,    63,  8146
30063,  -281,    41,  8161
30072,  -295,   -21,  8162
30082,  -316,   -58,  8159
30093,  -319,   -84,  8153
30103,  -320,  -106,  8147
30113,  -302,   -77,  8133
30123,  -259,    -2,  8136
30133,  -237,    10,  8146
30144,  -194,    52,  8138
30154,  -183,    95,  8142
30164,  -229,    66,  8139
30173,  -272,    31,  8143
30183,  -283,    38,  8140
30193,  -301,    16,  8150
30203,  -322,   -27,  8159
30214,  -336,  -102,  8167
30225,  -329,  -143,  8159
30235,  -321,  -190,  8148
30245,  -290,  -179,  8137
30255,  -259,  -106,  8138
30265,  -211,   -57,  8152
30275,  -245,   -75,  8159
30285,  -283,   -96,  8157
30294,  -330,  -151,  8164
30304,  -330,  -146,  8132
30314,  -372,  -152,  8136
30324,  -441,  -172,  8135
30334,  -415,  -117,  8130
30344,  -407,   -71,  8134
30354,  -368,   -12,  8151
30364,  -400,   -43,  8154
30375,  -416,   -95,  8162
30385,  -425,  -157,  8155
30395,  -411,  -173,  8148
30405,  -392,  -165,  8152
30415,  -377,  -112,  8151
30424,  -370,   -97,  8150
30433,  -359,   -88,  8159
30443,  -337,   -41,  8143
30452,  -339,     6,  8137
30463,  -329,     7,  8130
30473,  -342,   -65,  8136
30483,  -314,  -122,  8126
30493,  -306,   -98,  8131
30503,  -306,  -134,  8143
30513,  -303,  -110,  8149
30523,  -303,     3,  8152
30533,  -315,   145,  8155
30543,  -324,   181,  8147
30553,  -322,   192,  8145
30563,  -350,   257,  8135
30573,  -377,   204,  8146
30583,  -366,    45,  8156
30593,  -332,   -62,  8154
30603,  -299,  -105,  8152
30613,  -280,  -151,  8148
30623,  -289,  -101,  8140
30634,  -299,   -17,  8129
30644,  -308,    68,  8125
30654,  -331,   155,  8142
30664,  -372,   167,  8160
30674,  -384,    62,  8172
30684,  -324,   -83,  8184
30694,  -327,   -58,  8177
30704,  -290,  -131,  8171
30714,  -262,  -176,  8164
30723,  -249,  -205,  8162
30733,  -235,  -229,  8170
30743,  -243,  -216,  8174
30753,  -267,  -174,  8172
30763,  -273,  -133,  8167
30773,  -286,  -140,  8153
30783,  -293,  -141,  8140
30793,  -280,  -167,  8139
30803,  -265,  -184,  8149
30813,  -274,  -143,  8153
30823,  -280,  -115,  8157
30834,  -288,   -99,  8156
30844,  -293,   -80,  8157
30854,  -304,   -73,  8158
30863,  -310,   -68,  8157
30874,  -311,   -64,  8163
30884,  -311,   -66,  8162
30894,  -311,   -61,  8156
30904,  -318,   -64,  8166
30914,  -314,   -57,  8161
30924,  -317,   -57,  8157
30933,  -324,   -62,  8163
30943,  -326,   -60,  8159
30953,  -328,   -56,  8162
30964,  -326,   -51,  8163
30973,  -329,   -48,  8164
30983,  -331,   -46,  8170
30993,  -332,   -47,  8169
31003,  -330,   -45,  8164
31014,  -329,   -39,  8158
31023,  -326,   -37,  8161
31035,  -329,   -32,  8161
31045,  -338,   -43,  8162
31055,  -340,   -51,  8158
31065,  -344,   -51,  8157
31075,  -342,   -52,  8152
31085,  -343,   -57,  8145
31095,  -341,   -58,  8150
31105,  -347,   -55,  8154
31115,  -347,   -55,  8151
31125,  -346,   -59,  8156
31134,  -342,   -59,  8164
31143,  -336,   -65,  8167
31153,  -334,   -70,  8155
31164,  -333,   -70,  8145
31173,  -337,   -72,  8143
31184,  -335,   -68,  8145
31193,  -332,   -67,  8144
31203,  -331,   -64,  8135
31214,  -329,   -60,  8130
31224,  -324,   -62,  8125
31235,  -325,   -60,  8121
31245,  -323,   -59,  8128
31255,  -311,   -61,  8136
31265,  -308,   -59,  8143
31275,  -309,   -54,  8150
31285,  -313,   -58,  8158
31295,  -313,   -58,  8163
31305,  -313,   -58,  8157
31315,  -317,   -61,  8151
31325,  -317,   -63,  8143
31334,  -314,   -67,  8139
31343,  -315,   -70,  8149
31354,  -310,   -63,  8150
31364,  -311,   -59,  8154
31374,  -314,   -54,  8155
31384,  -319,   -51,  8150
31393,  -319,   -57,  8148
31404,  -321,   -59,  8149
31413,  -327,   -54,  8147
31423,  -329,   -51,  8157
31434,  -331,   -47,  8166
31444,  -335,   -48,  8164
31455,  -330,   -47,  8171
31465,  -327,   -54,  8162
31475,  -329,   -65,  8145
31484,  -327,   -63,  8149
31494,  -334,   -72,  8156
31504,  -327,   -70,  8159
31514,  -313,   -56,  8155
31525,  -298,   -56,  8146
31537,  -290,   -58,  8138
31547,  -288,   -66,  8133
31557,  -291,   -69,  8126
31568,  -297,   -66,  8127
31578,  -301,   -62,  8134
31588,  -303,   -56,  8137
31598,  -309,   -59,  8142
31609,  -310,   -61,  8140
31619,  -307,   -64,  8139
31629,  -305,   -64,  8142
31638,  -307,   -61,  8137
31647,  -309,   -53,  8150
31656,  -317,   -60,  8163
31666,  -318,   -62,  8177
31676,  -322,   -66,  8176
31686,  -319,   -58,  8173
31696,  -321,   -57,  8164
31706,  -322,   -60,  8157
31716,  -325,   -61,  8154
31726,  -330,   -61,  8152
31735,  -332,   -64,  8155
31745,  -325,   -59,  8157
31755,  -316,   -62,  8149
31765,  -310,   -57,  8140
31775,  -307,   -59,  8136
31785,  -311,   -57,  8137
31795,  -305,   -59,  8151
31805,  -299,   -60,  8154
31815,  -300,   -62,  8157
31825,  -298,   -58,  8156
31836,  -295,   -61,  8144
31846,  -293,   -62,  8145
31856,  -291,   -62,  8136
31866,  -288,   -66,  8133
31876,  -286,   -68,  8133
31886,  -286,   -70,  8135
31896,  -287,   -68,  8131
31906,  -288,   -66,  8135
31916,  -295,   -65,  8150
31926,  -291,   -67,  8154
31936,  -290,   -69,  8153
31946,  -282,   -70,  8143
31956,  -280,   -73,  8140
31966,  -275,   -75,  8140
31976,  -273,   -70,  8140
31986,  -267,   -70,  8137
31996,  -264,   -69,  8135
32006,  -264,   -72,  8135
32016,  -270,   -77,  8125
32026,  -269,   -73,  8123
32037,  -268,   -69,  8126
32047,  -265,   -71,  8131
32057,  -274,   -68,  8137
32067,  -273,   -73,  8142
32078,  -269,   -76,  8145
32088,  -269,   -76,  8147
32098,  -268,   -75,  8144
32108,  -273,   -76,  8152
32119,  -271,   -75,  8155
32129,  -272,   -76,  8158
32138,  -269,   -77,  8159
32147,  -269,   -73,  8156
32156,  -275,   -71,  8153
32166,  -271,   -74,  8142
32177,  -271,   -72,  8133
32186,  -276,   -74,  8130
32196,  -277,   -74,  8130
32206,  -275,   -73,  8129
32216,  -276,   -69,  8139
32226,  -272,   -72,  8143
32234,  -269,   -72,  8151
32242,  -269,   -72,  8145
32252,  -266,   -73,  8144
32262,  -264,   -72,  8139
32272,  -271,   -72,  8151
32282,  -273,   -68,  8154
32292,  -276,   -70,  8163
32302,  -274,   -70,  8159
32312,  -274,   -71,  8150
32322,  -273,   -69,  8148
32332,  -279,   -67,  8144
32342,  -278,   -64,  8136
32352,  -280,   -61,  8139
32362,  -280,   -65,  8142
32372,  -279,   -66,  8150
32382,  -278,   -65,  8155
32392,  -275,   -68,  8165
32402,  -275,   -61,  8159
32412,  -277,   -60,  8165
32422,  -279,   -65,  8169
32432,  -279,   -66,  8168
32442,  -281,   -67,  8170
32452,  -283,   -67,  8163
32462,  -284,   -66,  8161
32472,  -286,   -68,  8148
32482,  -282,   -68,  8138
32492,  -279,   -67,  8139
32502,  -273,   -66,  8137
32512,  -270,   -68,  8138
32522,  -266,   -71,  8139
32532,  -264,   -73,  8141
32542,  -268,   -76,  8148
32552,  -266,   -73,  8149
32563,  -266,   -77,  8147
32572,  -266,   -75,  8144
32582,  -266,   -72,  8153
32592,  -265,   -74,  8156
32602,  -265,   -69,  8151
32612,  -265,   -72,  8143
32622,  -267,   -74,  8141
32632,  -273,   -80,  8133
32642,  -275,   -80,  8134
32652,  -274,   -75,  8124
32662,  -274,   -76,  8127
32672,  -274,   -75,  8135
32682,  -273,   -76,  8137
32692,  -273,   -73,  8144
32702,  -271,   -74,  8149
32713,  -270,   -78,  8151
32722,  -269,   -81,  8151
32732,  -264,   -80,  8151
32742,  -267,   -82,  8149
32752,  -269,   -75,  8144
32762,  -270,   -74,  8153
32772,  -270,   -70,  8156
32782,  -268,   -74,  8154
32793,  -268,   -72,  8154
32802,  -270,   -73,  8149
32812,  -274,   -73,  8142
32822,  -271,   -74,  8139
32832,  -270,   -78,  8147
32842,  -270,   -75,  8153
32852,  -270,   -75,  8156
32862,  -268,   -78,  8155
32872,  -265,   -83,  8153
32882,  -271,   -82,  8143
32892,  -275,   -87,  8147
32903,  -276,   -84,  8152
32912,  -271,   -83,  8143
32922,  -270,   -81,  8144
32933,  -270,   -81,  8146
32948,  -272,   -81,  8144
32958,  -270,   -83,  8143
32969,  -268,   -85,  8132
32979,  -266,   -82,  8125
32989,  -270,   -81,  8127
32999,  -271,   -87,  8132
33010,  -271,   -89,  8138
33020,  -271,   -82,  8138
33030,  -271,   -87,  8145
33040,  -268,   -89,  8147
33047,  -263,   -92,  8145
33055,  -262,   -90,  8147
33065,  -265,   -85,  8138
33075,  -271,   -82,  8134
33085,  -274,   -80,  8141
33095,  -271,   -85,  8143
33105,  -271,   -86,  8141
33115,  -272,   -88,  8144
33125,  -272,   -86,  8143
33135,  -275,   -84,  8138
33146,  -274,   -73,  8134
33156,  -272,   -78,  8133
33166,  -271,   -91,  8139
33175,  -271,   -96,  8145
33186,  -278,   -91,  8148
33196,  -280,   -92,  8142
33206,  -276,   -96,  8136
33216,  -285,   -92,  8138
33225,  -286,   -94,  8136
33235,  -282,  -102,  8128
33246,  -282,  -102,  8128
33256,  -278,  -101,  8136
33266,  -280,  -109,  8145
33276,  -277,  -102,  8140
33286,  -282,  -116,  8138
33296,  -294,  -111,  8148
33306,  -295,  -108,  8142
33316,  -290,   -95,  8142
33326,  -282,   -85,  8139
33336,  -278,   -71,  8144
33347,  -280,   -64,  8148
33357,  -284,   -75,  8147
33367,  -283,   -75,  8146
33377,  -282,   -78,  8139
33386,  -284,   -88,  8136
33397,  -278,   -84,  8142
33407,  -277,   -84,  8147
33417,  -282,   -98,  8149
33427,  -278,  -116,  8141
33437,  -274,  -121,  8136
33445,  -274,  -143,  8135
33455,  -278,  -135,  8136
33465,  -279,  -141,  8137
33475,  -289,  -125,  8150
33485,  -294,  -121,  8162
33495,  -293,  -148,  8151
33505,  -286,  -114,  8149
33515,  -284,  -110,  8143
33525,  -284,  -122,  8140
33535,  -270,  -137,  8113
33548,  -291,   -56,  8153
33558,  -299,   -78,  8164
33568,  -343,  -122,  8190
33579,  -303,  -109,  8160
33589,  -293,   -87,  8157
33599,  -296,  -115,  8155
33610,  -297,  -100,  8158
33620,  -298,  -119,  8165
33630,  -262,  -111,  8140
33641,  -269,   -84,  8152
33650,  -283,  -119,  8143
33659,  -274,  -103,  8152
33668,  -285,  -124,  8151
33677,  -278,  -124,  8122
33688,  -282,  -112,  8124
33698,  -300,  -171,  8136
33707,  -276,  -178,  8111
33717,  -298,  -151,  8142
33727,  -256,  -155,  8109
33737,  -272,  -171,  8110
33746,  -275,  -147,  8121
33756,  -253,  -198,  8108
33766,  -239,  -127,  8112
33775,  -247,  -121,  8133
33786,  -259,  -112,  8147
33795,  -250,  -133,  8131
33805,  -245,  -120,  8147
33816,  -254,   -82,  8158
33825,  -307,   -85,  8147
33835,  -280,   -55,  8158
33846,  -269,   -46,  8156
33857,  -251,    -9,  8146
33866,  -264,    21,  8179
33876,  -254,   -16,  8173
33886,  -257,    13,  8159
33896,  -268,   -13,  8168
33907,  -256,   -29,  8151
33917,  -237,   -49,  8132
33926,  -221,    22,  8135
33936,  -228,    17,  8156
33946,  -243,     0,  8166
33957,  -248,    11,  8152
33966,  -265,   -23,  8170
33976,  -249,   -27,  8161
33986,  -253,   -41,  8146
33996,  -235,   -63,  8123
34007,  -224,   -27,  8128
34017,  -240,    -5,  8152
34027,  -244,    13,  8175
34037,  -233,    14,  8170
34047,  -231,    14,  8166
34057,  -237,    23,  8180
34066,  -246,     3,  8180
34076,  -239,   -28,  8160
34086,  -249,     7,  8159
34097,  -250,     3,  8174
34107,  -253,   -46,  8159
34116,  -249,   -32,  8161
34126,  -256,   -13,  8168
34137,  -264,   -43,  8161
34147,  -258,   -71,  8141
34157,  -252,   -27,  8144
34167,  -243,   -47,  8142
34178,  -239,   -49,  8138
34188,  -232,     6,  8153
34198,  -242,   -16,  8151
34208,  -239,   -13,  8153
34218,  -226,     3,  8137
34227,  -239,    -1,  8143
34237,  -248,    -4,  8138
34246,  -242,    -1,  8136
34256,  -250,    30,  8149
34266,  -255,    21,  8157
34275,  -257,    18,  8168
34286,  -254,    11,  8156
34296,  -252,    41,  8141
34306,  -265,    80,  8115
34316,  -288,   171,  8104
34326,  -329,   243,  8128
34336,  -356,   249,  8140
34347,  -306,   196,  8141
34357,  -244,    48,  8161
34366,  -203,   -64,  8165
34376,  -190,  -112,  8169
34387,  -189,   -98,  8162
34397,  -209,   -80,  8165
34407,  -182,  -153,  8152
34417,  -177,  -204,  8159
34427,  -177,  -239,  8155
34437,  -186,  -197,  8150
34447,  -191,  -132,  8142
34457,  -203,   -65,  8144
34467,  -228,   -62,  8146
34477,  -236,   -67,  8143
34487,  -238,   -14,  8152
34496,  -249,    32,  8148
34506,  -267,   104,  8148
34517,  -260,   149,  8148
34527,  -261,   187,  8156
34537,  -281,   256,  8167
34547,  -330,   387,  8173
34557,  -335,   289,  8175
34567,  -353,   183,  8161
34577,  -332,   140,  8152
34586,  -328,   131,  8144
34597,  -347,   172,  8145
34607,  -346,   114,  8141
34617,  -299,     6,  8148
34627,  -276,   -65,  8157
34637,  -196,  -120,  8147
34647,  -142,  -187,  8158
34658,  -152,  -206,  8166
34668,   -84,  -272,  8161
34678,   -57,  -299,  8170
34688,   -72,  -313,  8175
34698,   -97,  -307,  8168
34708,  -120,  -247,  8170
34718,  -148,  -203,  8165
34728,  -153,  -154,  8150
34738,  -176,   -71,  8142
34748,  -213,    47,  8136
34758,  -245,   148,  8130
34768,  -234,    98,  8131
34778,  -252,    61,  8137
34788,  -227,    11,  8134
34798,  -262,    92,  8131
34808,  -288,   138,  8129
34818,  -290,    85,  8124
34828,  -283,   108,  8137
34838,  -257,    70,  8138
34848,  -235,    -4,  8142
34858,  -222,   -84,  8148
34868,  -232,   -84,  8156
34878,  -241,  -128,  8159
34888,  -244,  -162,  8161
34898,  -226,  -103,  8152
34908,  -242,   -30,  8158
34919,  -197,   -96,  8159
34928,  -160,  -142,  8160
34939,  -163,  -178,  8167
34948,  -155,  -167,  8162
34956,  -156,  -112,  8163
34966,  -155,   -71,  8156
34977,  -145,   -44,  8151
34986,  -156,   -23,  8152
34998,  -156,   -15,  8155
35006,  -165,   -13,  8151
35016,  -169,    -5,  8149
35026,  -182,   -21,  8157
35037,  -187,   -39,  8154
35047,  -194,   -52,  8155
35056,  -198,   -48,  8155
35067,  -211,   -52,  8159
35077,  -220,   -75,  8153
35086,  -216,   -80,  8145
35097,  -241,   -77,  8147
35107,  -244,   -58,  8149
35116,  -249,   -20,  8162
35126,  -233,    11,  8155
35137,  -236,    22,  8160
35147,  -234,    22,  8160
35157,  -236,    21,  8159
35167,  -228,    14,  8147
35178,  -224,   -13,  8145
35188,  -216,   -12,  8144
35198,  -214,   -13,  8151
35207,  -217,     8,  8159
35217,  -218,     6,  8161
35227,  -209,     1,  8157
35237,  -217,    -2,  8160
35247,  -221,   -14,  8158
35256,  -227,    -3,  8164
35267,  -228,   -30,  8156
35277,  -235,   -43,  8145
35287,  -235,   -29,  8152
35296,  -231,    -1,  8156
35307,  -225,   -19,  8150
35316,  -219,   -11,  8139
35327,  -216,    -3,  8132
35336,  -221,   -18,  8131
35347,  -221,   -14,  8143
35357,  -227,   -22,  8157
35367,  -226,   -22,  8153
35377,  -225,    -7,  8162
35387,  -218,     0,  8156
35397,  -229,   -26,  8156
35407,  -225,   -37,  8158
35418,  -218,   -35,  8161
35428,  -220,   -16,  8167
35437,  -222,   -17,  8167
35448,  -213,   -20,  8147
35458,  -226,     2,  8156
35467,  -222,    21,  8145
35477,  -224,    21,  8148
35488,  -231,    31,  8154
35498,  -218,    40,  8149
35508,  -222,    41,  8161
35518,  -227,    53,  8165
35528,  -238,    74,  8153
35538,  -242,    26,  8156
35548,  -232,    17,  8149
35558,  -229,     4,  8163
35568,  -234,   -24,  8168
35577,  -232,   -22,  8165
35588,  -221,   -15,  8163
35597,  -221,     2,  8150
35608,  -228,    30,  8150
35618,  -223,    43,  8145
35628,  -225,    61,  8144
35638,  -232,    72,  8146
35648,  -235,    56,  8154
35658,  -233,    44,  8156
35668,  -238,     9,  8155
35677,  -236,   -10,  8159
35688,  -220,    -9,  8157
35697,  -224,    -6,  8140
35708,  -228,    12,  8139
35718,  -223,    45,  8146
35728,  -232,   126,  8153
35738,  -237,   161,  8161
35748,  -260,   224,  8158
35759,  -258,   169,  8159
35769,  -253,   100,  8141
35779,  -237,    38,  8132
35789,  -234,    28,  8127
35799,  -242,    42,  8141
35809,  -231,   -43,  8158
35819,  -214,   -70,  8159
35829,  -187,   -76,  8166
35839,  -182,   -59,  8155
35849,  -179,   -97,  8148
35858,  -180,  -108,  8151
35867,  -181,  -100,  8156
35877,  -185,   -75,  8149
35887,  -190,   -42,  8151
35897,  -201,   -15,  8155
35908,  -201,    32,  8154
35917,  -207,    93,  8147
35927,  -214,   142,  8144
35937,  -226,   128,  8147
35947,  -243,   106,  8156
35958,  -247,     1,  8166
35968,  -232,   -41,  8169
35978,  -218,   -28,  8166
35989,  -219,    -6,  8165
35998,  -223,    30,  8164
36008,  -230,    70,  8159
36018,  -240,   101,  8157
36028,  -248,   136,  8159
36038,  -269,   123,  8161
36048,  -264,   132,  8161
36057,  -276,    94,  8165
36067,  -246,     3,  8156
36077,  -237,   -53,  8165
36088,  -230,  -112,  8165
36097,  -245,  -134,  8168
36107,  -248,  -152,  8169
36118,  -238,  -168,  8168
36127,  -239,   -95,  8151
36141,  -222,   -45,  8143
36149,  -218,   -10,  8135
36158,  -217,     9,  8128
36168,  -219,    11,  8140
36178,  -220,    60,  8141
36188,  -232,   187,  8145
36198,  -246,   256,  8139
36208,  -244,   276,  8139
36218,  -244,   274,  8140
36228,  -229,   159,  8149
36239,  -211,    88,  8153
36248,  -209,    84,  8155
36255,  -220,    83,  8158
36265,  -227,    16,  8162
36275,  -229,   -14,  8160
36285,  -221,   -28,  8148
36295,  -226,   -29,  8136
36305,  -242,   -29,  8131
36315,  -259,   -31,  8142
36325,  -274,   -38,  8151
36335,  -283,   -48,  8158
36345,  -264,   -63,  8153
36355,  -259,   -86,  8155
36365,  -247,   -92,  8143
36376,  -245,   -50,  8146
36385,  -224,   -16,  8151
36395,  -234,    43,  8154
36406,  -229,    83,  8156
36415,  -217,    98,  8153
36425,  -228,   215,  8146
36435,  -244,   279,  8151
36445,  -242,   281,  8153
36455,  -244,   306,  8141
36465,  -237,   211,  8144
36475,  -228,    95,  8152
36485,  -214,   -18,  8147
36495,  -212,   -12,  8154
36505,  -215,   -19,  8157
36515,  -216,   -80,  8151
36525,  -213,   -72,  8144
36535,  -229,   -47,  8148
36545,  -245,   -80,  8150
36555,  -247,  -107,  8145
36565,  -246,  -189,  8155
36575,  -226,  -277,  8160
36585,  -213,  -300,  8155
36595,  -220,  -224,  8144
36606,  -213,  -160,  8133
36616,  -218,  -112,  8127
36625,  -225,   -74,  8118
36635,  -228,   -50,  8126
36645,  -229,   -35,  8137
36655,  -228,   -36,  8144
36665,  -230,   -29,  8157
36675,  -235,   -28,  8159
36686,  -233,   -30,  8159
36695,  -206,    23,  8155
36705,  -205,    34,  8152
36715,  -237,    27,  8158
36725,  -255,    26,  8158
36736,  -264,     6,  8156
36745,  -260,   -15,  8140
36755,  -240,     0,  8125
36765,  -229,    43,  8112
36776,  -225,    62,  8116
36785,  -245,    61,  8138
36796,  -257,    63,  8143
36805,  -258,    92,  8149
36816,  -260,   103,  8149
36825,  -262,   116,  8155
36835,  -264,   154,  8150
36845,  -240,    76,  8147
36856,  -244,    60,  8161
36866,  -228,    61,  8159
36876,  -225,    26,  8169
36885,  -229,   -26,  8167
36895,  -239,   -15,  8158
36905,  -238,     7,  8149
36915,  -245,    12,  8143
36925,  -243,   -27,  8138
36936,  -236,   -54,  8150
36946,  -235,   -72,  8158
36956,  -236,   -56,  8165
36969,  -233,   -37,  8158
36979,  -233,   -15,  8151
36989,  -232,    -1,  8139
36999,  -240,    10,  8128
37009,  -241,    14,  8129
37019,  -234,    17,  8128
37029,  -238,    19,  8140
37039,  -237,    20,  8144
37049,  -240,    19,  8149
37059,  -238,    17,  8147
37068,  -236,    20,  8145
37078,  -241,    23,  8145
37088,  -243,    21,  8147
37098,  -243,    23,  8156
37108,  -246,    17,  8172
37118,  -247,    21,  8173
37128,  -246,    12,  8175
37138,  -246,    14,  8167
37148,  -250,    14,  8155
37159,  -251,     3,  8146
37168,  -251,     2,  8148
37178,  -248,     5,  8155
37188,  -248,    17,  8153
37198,  -247,    32,  8148
37208,  -245,    29,  8149
37218,  -246,    30,  8140
37228,  -243,    33,  8136
37238,  -240,    32,  8137
37248,  -241,    31,  8137
37258,  -237,    30,  8143
37268,  -230,    28,  8151
37279,  -227,    22,  8155
37288,  -225,    19,  8147
37298,  -221,    10,  8142
37308,  -219,     5,  8141
37318,  -225,     4,  8136
37331,  -230,    12,  8146
37338,  -230,    25,  8146
37348,  -233,    22,  8142
37358,  -235,    15,  8140
37369,  -235,    19,  8143
37379,  -235,    18,  8147
37390,  -236,    19,  8149
37399,  -234,    15,  8150
37409,  -238,     6,  8153
37419,  -241,    -2,  8155
37429,  -241,    -8,  8159
37439,  -237,     4,  8165
37449,  -233,     6,  8156
37459,  -225,    18,  8157
37466,  -224,    13,  8157
37476,  -223,    15,  8152
37486,  -230,    28,  8149
37496,  -234,    29,  8148
37506,  -235,    20,  8146
37516,  -234,     4,  8143
37526,  -234,   -25,  8137
37536,  -238,   -34,  8134
37546,  -238,   -33,  8136
37556,  -244,   -19,  8144
37566,  -234,    21,  8144
37576,  -233,    25,  8147
37586,  -235,    39,  8156
37596,  -233,    43,  8156
37607,  -233,    40,  8152
37616,  -231,    45,  8150
37626,  -221,    63,  8136
37636,  -221,    47,  8130
37646,  -228,    31,  8126
37656,  -241,     1,  8124
37666,  -240,    -2,  8131
37676,  -243,   -15,  8129
37686,  -239,    -8,  8131
37696,  -241,     5,  8139
37706,  -234,    21,  8145
37716,  -226,    45,  8149
37726,  -219,    62,  8154
37736,  -221,    50,  8156
37746,  -227,    31,  8150
37756,  -228,    35,  8143
37766,  -229,    50,  8139
37776,  -237,    46,  8147
37786,  -240,    23,  8146
37796,  -242,    18,  8140
37806,  -250,    35,  8141
37816,  -262,    61,  8136
37826,  -292,   104,  8137
37836,  -336,   170,  8141
37846,  -370,   241,  8140
37856,  -333,   200,  8152
37866,  -282,   143,  8161
37876,  -239,    77,  8158
37886,  -171,   -77,  8159
37896,  -166,  -139,  8156
37906,  -181,  -114,  8147
37916,  -193,   -83,  8141
37930,  -204,   -51,  8134
37936,  -208,   -31,  8130
37946,  -213,   -23,  8135
37957,  -220,   -19,  8143
37966,  -220,    -9,  8144
37976,  -218,     2,  8153
37986,  -218,     7,  8154
37997,  -227,    16,  8156
38007,  -229,    19,  8163
38017,  -233,    23,  8165
38026,  -237,    27,  8163
38036,  -244,    24,  8156
38047,  -249,    15,  8147
38056,  -251,     1,  8144
38066,  -257,    -3,  8136
38076,  -248,     9,  8138
38087,  -238,    18,  8143
38096,  -226,    30,  8142
38107,  -221,    30,  8139
38117,  -217,    27,  8134
38126,  -221,    29,  8128
38137,  -224,    25,  8133
38147,  -229,    22,  8139
38156,  -231,    26,  8153
38167,  -234,    30,  8156
38179,  -235,    33,  8157
38189,  -237,    34,  8163
38199,  -239,    31,  8157
38209,  -239,    27,  8149
38219,  -241,    27,  8145
38229,  -242,    26,  8149
38239,  -241,    23,  8150
38249,  -240,    23,  8157
38259,  -239,    20,  8153
38269,  -244,    11,  8148
38279,  -255,   -30,  8140
38289,  -265,   -70,  8127
38299,  -270,   -74,  8129
38309,  -264,   -80,  8136
38319,  -250,   -34,  8155
38329,  -253,   -25,  8159
38339,  -246,    14,  8155
38349,  -244,    23,  8151
38359,  -238,    46,  8154
38369,  -244,    81,  8149
38380,  -243,    84,  8146
38390,  -237,    81,  8152
38400,  -230,    77,  8159
38409,  -228,    71,  8159
38420,  -229,    76,  8158
38430,  -228,    59,  8154
38440,  -231,    46,  8150
38450,  -235,    48,  8140
38460,  -234,    53,  8150
38470,  -235,    52,  8155
38479,  -235,    52,  8164
38489,  -237,    54,  8159
38499,  -235,    38,  8155
38509,  -236,    21,  8153
38519,  -241,     1,  8151
38530,  -247,    -8,  8146
38539,  -253,   -19,  8141
38549,  -259,   -35,  8142
38559,  -259,   -54,  8150
38570,  -255,   -69,  8146
38579,  -245,    17,  8148
38589,  -240,    52,  8141
38600,  -236,    54,  8133
38609,  -227,    61,  8132
38619,  -235,    66,  8143
38630,  -231,    64,  8150
38640,  -237,    63,  8156
38650,  -236,    71,  8160
38660,  -235,    52,  8150
38669,  -229,    42,  8141
38680,  -222,    54,  8134
38689,  -221,    63,  8132
38699,  -226,    61,  8134
38709,  -228,    55,  8144
38719,  -233,    48,  8152
38729,  -234,    47,  8154
38740,  -233,    44,  8162
38750,  -236,    41,  8154
38760,  -237,    44,  8149
38770,  -234,    45,  8150
38779,  -229,    46,  8143
38789,  -232,    44,  8152
38799,  -230,    37,  8151
38810,  -232,    24,  8144
38819,  -225,     1,  8129
38829,  -225,     6,  8126
38840,  -226,    -1,  8122
38849,  -215,    16,  8123
38859,  -213,    32,  8132
38869,  -215,    41,  8134
38880,  -217,    37,  8141
38889,  -219,    35,  8152
38899,  -224,    35,  8163
38910,  -224,    33,  8165
38920,  -229,    35,  8166
38929,  -229,    35,  8167
38939,  -232,    33,  8169
38950,  -231,    34,  8158
38959,  -231,    31,  8154
38970,  -227,    32,  8153
38980,  -226,    26,  8155
38990,  -228,    26,  8161
39000,  -228,    30,  8159
39010,  -230,    33,  8151
39021,  -236,    31,  8143
39031,  -234,    30,  8140
39040,  -228,    28,  8134
39050,  -229,    28,  8136
39060,  -229,    28,  8129
39070,  -229,    27,  8134
39080,  -227,    26,  8139
39091,  -227,    34,  8146
39100,  -233,    36,  8144
39111,  -236,    39,  8137
39120,  -239,    35,  8143
39130,  -236,    43,  8151
39140,  -238,    42,  8161
39150,  -239,    41,  8179
39161,  -245,    43,  8183
39171,  -251,    45,  8186
39180,  -253,    44,  8173
39190,  -255,    36,  8161
39200,  -259,    26,  8154
39210,  -259,    27,  8158
39220,  -259,    28,  8162
39230,  -257,    31,  8159
39240,  -246,    32,  8156
39250,  -236,    28,  8145
39261,  -238,    32,  8137
39271,  -241,    34,  8136
39278,  -243,    31,  8131
39288,  -239,    31,  8134
39297,  -242,    28,  8137
39307,  -240,    25,  8149
39317,  -240,    19,  8148
39327,  -240,    21,  8147
39338,  -236,    24,  8143
39347,  -233,    23,  8147
39358,  -232,    25,  8143
39368,  -233,    29,  8153
39378,  -234,    28,  8156
39388,  -231,    26,  8165
39398,  -232,    23,  8166
39407,  -234,    24,  8155
39417,  -234,    23,  8135
39428,  -232,    23,  8117
39438,  -230,    22,  8113
39447,  -233,    19,  8116
39457,  -232,    18,  8130
39467,  -230,    25,  8144
39477,  -231,    35,  8153
39488,  -228,    49,  8154
39498,  -224,    60,  8149
39508,  -223,    90,  8154
39518,  -210,   108,  8150
39528,  -205,    88,  8142
39538,  -213,    47,  8150
39548,  -227,     0,  8161
39558,  -232,   -17,  8157
39568,  -231,   -19,  8140
39578,  -228,    -5,  8132
39588,  -223,     1,  8123
39598,  -225,     1,  8116
39607,  -226,     1,  8118
39618,  -229,     4,  8133
39628,  -232,     7,  8147
39638,  -232,     8,  8158
39648,  -233,    11,  8177
39658,  -228,    12,  8185
39668,  -228,     9,  8179
39678,  -225,     8,  8183
39688,  -222,     7,  8184
39698,  -222,     2,  8181
39708,  -223,   -17,  8177
39718,  -236,   -45,  8172
39728,  -271,    41,  8132
39738,  -712,  1288,  8087
39748,  -656,  1393,  8071
39758,  -498,   935,  8071
39768,  -346,   517,  8094
39778,  -224,   219,  8120
39788,  -123,   -67,  8145
39798,   -37,  -338,  8177
39808,    11,  -601,  8180
39818,   -19,  -561,  8178
39828,   -73,  -430,  8173
39838,  -120,  -353,  8175
39848,  -153,  -417,  8191
39858,  -181,  -383,  8212
39868,  -202,  -275,  8205
39878,  -215,  -195,  8179
39888,  -222,  -135,  8145
39898,  -225,   -95,  8118
39908,  -228,   -70,  8101
39918,  -234,   -48,  8103
39928,  -235,   -32,  8118
39938,  -236,   -16,  8134
39948,  -229,    -4,  8147
39958,  -225,     4,  8153
39968,  -224,    11,  8138
39978,  -224,    21,  8133
39992,  -228,    32,  8137
40002,  -233,    40,  8157
40012,  -231,    53,  8169
40023,  -222,    77,  8172
40033,  -231,    97,  8187
40042,  -235,    82,  8168
40052,  -227,    54,  8138
40062,  -224,    70,  8128
40072,  -223,    73,  8127
40082,  -230,   121,  8142
40092,  -232,   149,  8168
40102,  -233,   137,  8175
40112,  -298,   131,  8189
40122,  -325,    21,  8181
40132,  -308,   -40,  8154
40142,  -367,   -49,  8142
40152,  -283,   -91,  8135
40162,  -220,   -92,  8137
40172,  -177,   -80,  8147
40182,  -163,   -57,  8155
40194,  -181,   -39,  8153
40204,  -195,   -27,  8146
40214,  -196,   -13,  8130
40225,  -196,    -2,  8122
40235,  -200,     0,  8125
40245,  -214,     4,  8139
40255,  -224,    14,  8157
40266,  -233,    25,  8169
40276,  -242,    38,  8170
40285,  -258,    47,  8177
40290,  -256,    43,  8171
40298,  -245,    26,  8152
40308,  -232,    18,  8145
40318,  -230,    19,  8150
40328,  -231,    26,  8162
40338,  -259,    35,  8151
40348,  -614,   284,  8160
40359,  -563,   197,  8145
40368,  -486,   100,  8122
40378,  -407,    36,  8112
40388,  -234,   -23,  8121
40398,  -163,   -38,  8140
40408,  -107,   -46,  8157
40418,   -26,   -63,  8174
40428,   -15,   -31,  8166
40439,   -64,   -10,  8157
40448,  -110,     8,  8151
40458,  -143,    16,  8144
40469,  -169,    19,  8153
40478,  -185,    23,  8163
40489,  -199,    30,  8170
40499,  -210,    32,  8175
40509,  -216,    28,  8164
40518,  -218,    27,  8153
40529,  -225,    29,  8135
40539,  -226,    30,  8130
40548,  -228,    30,  8133
40559,  -226,    27,  8147
40569,  -226,    28,  8162
40578,  -229,    33,  8169
40588,  -232,    36,  8163
40599,  -232,    35,  8156
40608,  -228,    38,  8144
40619,  -225,    38,  8137
40629,  -222,    33,  8137
40639,  -219,    34,  8141
40649,  -222,    32,  8146
40659,  -224,    33,  8138
40669,  -229,    32,  8135
40678,  -229,    27,  8127
40689,  -233,    30,  8122
40699,  -235,    35,  8126
40708,  -233,    35,  8133
40719,  -234,    34,  8146
40729,  -233,    31,  8157
40738,  -232,    30,  8160
40749,  -233,    34,  8155
40759,  -234,    37,  8152
40768,  -230,    36,  8148
40779,  -233,    35,  8147
40789,  -234,    34,  8149
40799,  -228,    31,  8145
40809,  -224,    25,  8144
40819,  -227,    23,  8149
40829,  -220,    25,  8141
40839,  -213,    24,  8139
40849,  -215,    26,  8146
40859,  -213,    30,  8149
40869,  -214,    34,  8146
40879,  -219,    34,  8151
40889,  -225,    32,  8148
40899,  -223,    30,  8145
40908,  -222,    30,  8150
40919,  -222,    33,  8152
40929,  -224,    31,  8161
40939,  -224,    24,  8168
40949,  -224,    20,  8177
40959,  -225,    22,  8166
40969,  -227,    13,  8162
40979,  -225,     4,  8159
40989,  -236,   -10,  8168
41003,  -234,    -9,  8158
41013,  -234,   -13,  8161
41023,  -236,   -20,  8154
41032,  -234,     1,  8146
41043,  -237,     6,  8147
41053,  -231,     4,  8139
41063,  -223,    40,  8139
41073,  -242,     6,  8155
41083,  -257,   -60,  8153
41093,  -250,    -7,  8161
41102,  -230,    52,  8160
41112,  -242,    43,  8175
41122,  -231,    44,  8162
41132,  -219,    23,  8156
41142,  -237,   -43,  8161
41152,  -237,   -66,  8154
41162,  -223,    -5,  8154
41172,  -230,     4,  8150
41182,  -210,    52,  8138
41192,  -201,    91,  8144
41202,  -198,    87,  8144
41212,  -200,   101,  8140
41222,  -207,   105,  8146
41232,  -218,    72,  8157
41242,  -221,     3,  8144
41252,  -237,   -67,  8154
41262,  -242,   -64,  8142
41273,  -261,   -36,  8145
41283,  -255,   -20,  8139
41292,  -265,   -55,  8144
41301,  -238,    12,  8141
41312,  -242,   -13,  8138
41321,  -262,   -20,  8135
41331,  -281,   -31,  8141
41342,  -267,   -21,  8135
41351,  -271,   -12,  8137
41361,  -262,     2,  8135
41371,  -220,    50,  8129
41382,  -203,    -2,  8108
41391,  -237,   -31,  8132
41402,  -245,   -62,  8126
41412,  -238,    13,  8140
41421,  -308,  -204,  8127
41432,  -244,    32,  8104
41441,  -225,   372,  8132
41452,  -254,   599,  8149
41462,  -288,   753,  8163
41471,  -299,   864,  8148
41482,  -254,   806,  8141
41491,  -184,   716,  8118
41503,  -175,   582,  8147
41513,  -178,   340,  8138
41523,   -89,   140,  8159
41533,   -83,     1,  8181
41543,  -152,   -60,  8170
41553,  -198,  -113,  8140
41563,  -224,  -132,  8129
41573,  -222,  -101,  8121
41583,  -220,   -57,  8123
41593,  -212,  -111,  8141
41604,  -208,  -171,  8157
41614,  -212,  -241,  8167
41624,  -233,  -282,  8176
41634,  -240,  -282,  8173
41644,  -236,  -275,  8158
41654,  -282,  -266,  8149
41664,  -315,  -235,  8151
41674,  -352,  -237,  8149
41684,  -349,  -184,  8136
41693,  -327,  -100,  8146
41702,  -310,   -45,  8142
41712,  -297,     7,  8124
41722,  -278,    39,  8120
41732,  -249,    47,  8112
41743,  -201,    19,  8124
41753,  -132,     2,  8133
41762,  -141,    14,  8149
41772,  -172,     8,  8153
41782,  -201,    51,  8156
41793,  -208,    80,  8156
41802,  -236,    66,  8156
41812,  -258,    58,  8145
41822,  -225,    49,  8145
41833,  -186,    16,  8156
41841,  -160,    -6,  8160
41852,  -154,   -16,  8163
41862,  -185,    17,  8185
41872,  -252,    32,  8180
41882,  -336,    61,  8144
41892,  -391,    74,  8153
41900,  -341,    55,  8175
41910,  -309,    24,  8179
41920,  -265,     8,  8222
41930,  -299,    36,  8213
41940,  -364,    74,  8192
41949,  -412,   111,  8190
41960,  -414,   130,  8181
41970,  -483,   152,  8177
41979,  -574,   194,  8241
41990,  -622,   295,  8213
42000,  -670,   376,  8213
42010,  -785,   478,  8202
42019,  -912,   551,  8130
42030,  -789,   499,  8031
42040,  -369,   267,  7920
42050,  -272,   251,  7894
42060,  -326,   282,  7964
42070,  -426,   321,  7972
42080,  -480,   313,  8052
42090,  -619,   342,  8201
42100,  -616,   278,  8186
42110,  -601,   212,  8278
42119,  -562,   231,  8166
42130,  -593,   396,  8245
42140,  -793,   633,  8239
42150,  -850,   957,  8177
42159,  -707,  1394,  8126
42170,  -607,  1465,  8116
42179,  -547,  1290,  8144
42190,  -504,  1134,  8074
42200,  -473,   844,  8151
42210,  -442,   480,  8215
42220,  -377,   132,  8155
42230,  -298,  -146,  8040
42240,  -226,  -402,  8057
42250,  -183,  -595,  8045
42260,  -109,  -765,  8154
42270,   -26,  -818,  8107
42280,    39,  -736,  8052
42290,   -62,  -677,  8063
42300,  -213,  -583,  8120
42310,  -222,  -583,  8107
42320,  -270,  -582,  8137
42330,  -325,  -527,  8173
42340,  -281,  -489,  8140
42350,  -275,  -453,  8116
42360,  -288,  -381,  8131
42370,  -279,  -282,  8140
42380,  -270,  -201,  8156
42390,  -260,  -130,  8163
42400,  -249,   -91,  8141
42410,  -254,   -51,  8133
42420,  -249,   -23,  8128
42430,  -255,    -7,  8121
42440,  -256,    13,  8131
42450,  -255,    22,  8148
42460,  -255,    30,  8156
42470,  -262,    35,  8165
42480,  -266,    36,  8163
42490,  -258,    40,  8153
42500,  -255,    38,  8137
42510,  -256,    40,  8127
42520,  -263,    41,  8132
42530,  -262,    39,  8141
42540,  -268,    41,  8151
42550,  -262,    44,  8155
42560,  -263,    44,  8150
42570,  -263,    43,  8136
42580,  -261,    39,  8128
42590,  -255,    44,  8128
42600,  -251,    49,  8137
42615,  -251,    46,  8147
42624,  -258,    50,  8152
42634,  -259,    47,  8154
42644,  -259,    40,  8151
42654,  -255,    45,  8131
42664,  -250,    48,  8121
42674,  -250,    48,  8121
42684,  -250,    50,  8132
42694,  -250,    47,  8145
42704,  -249,    46,  8155
42712,  -252,    46,  8152
42722,  -250,    42,  8156
42733,  -248,    42,  8141
42743,  -247,    34,  8137
42752,  -246,    38,  8142
42763,  -251,    43,  8150
42773,  -258,    44,  8152
42782,  -269,    38,  8159
42792,  -248,    11,  8145
42803,    -5,   105,  8125
42812,   347,   511,  8120
42823,   466,   875,  8087
42833,   276,   991,  8134
42842,  -112,   661,  8176
42853,  -471,   265,  8234
42863,  -556,    54,  8231
42872,  -479,  -103,  8196
42883,  -402,  -382,  8150
42893,  -520,  -575,  8101
42902,  -515,  -486,  8096
42913,  -453,  -364,  8123
42924,  -406,  -256,  8145
42933,  -362,  -192,  8171
42944,  -330,  -137,  8167
42954,  -312,   -89,  8156
42964,  -291,   108,  8121
42973,  -292,   102,  8105
42983,  -254,  -104,  8108
42994,  -249,   -84,  8153
43004,  -272,   -41,  8220
43013,  -306,   -12,  8253
43023,  -312,    20,  8256
43033,  -296,    89,  8151
43043,  -211,    20,  8075
43053,  -207,     8,  8038
43064,  -220,    10,  8030
43074,  -226,     6,  8047
43083,  -242,    10,  8078
43093,  -251,    11,  8105
43104,  -250,    14,  8112
43114,  -251,    18,  8109
43124,  -251,    24,  8104
43134,  -254,    20,  8109
43144,  -259,    36,  8146
43154,  -266,    50,  8203
43164,  -263,    47,  8242
43173,  -263,    41,  8255
43183,  -267,    34,  8233
43194,  -265,    38,  8171
43204,  -258,    40,  8111
43213,  -252,    31,  8063
43223,  -247,    31,  8063
43233,  -241,    23,  8084
43243,  -242,    27,  8112
43253,  -244,    28,  8128
43263,  -243,    27,  8134
43273,  -243,    34,  8135
43283,  -246,    43,  8134
43293,  -258,    57,  8147
43303,  -259,    52,  8181
43313,  -227,    42,  8220
43323,  -233,    45,  8236
43334,  -236,    50,  8233
43344,  -247,    30,  8200
43354,  -259,     6,  8146
43364,  -269,   -27,  8109
43374,  -267,   -89,  8068
43384,  -258,  -119,  8060
43394,  -250,   -73,  8091
43404,  -242,   -50,  8130
43411,  -209,   -28,  8124
43421,  -207,   -50,  8120
43431,  -224,   -48,  8127
43441,  -248,   -71,  8149
43451,  -261,   -41,  8181
43461,  -267,   -12,  8219
43471,  -281,   -45,  8240
43481,  -276,   -57,  8237
43491,  -271,   -17,  8203
43501,  -284,   -13,  8166
43511,  -309,  -115,  8110
43521,  -401,  -346,  8072
43531,  -453,  -516,  8035
43541,  -424,  -497,  8063
43551,  -299,  -235,  8133
43561,  -163,    36,  8144
43571,   -44,   292,  8132
43581,   -56,   353,  8183
43591,   -90,   291,  8195
43601,  -133,   176,  8195
43611,  -156,    63,  8200
43621,  -178,   -41,  8206
43631,  -172,  -138,  8183
43641,  -180,  -195,  8159
43651,  -190,  -195,  8129
43661,  -181,  -147,  8097
43671,  -196,  -122,  8092
43681,  -205,  -116,  8084
43691,  -181,  -132,  8090
43701,  -212,  -186,  8126
43711,  -212,  -226,  8158
43721,  -208,  -257,  8175
43731,  -201,  -274,  8167
43741,  -159,  -228,  8156
43751,  -212,  -249,  8155
43761,  -216,  -162,  8194
43771,  -214,  -124,  8200
43781,  -219,  -145,  8217
43791,  -252,  -273,  8206
43801,  -252,  -321,  8167
43811,  -220,  -379,  8154
43821,  -223,  -396,  8082
43831,  -172,  -329,  8071
43841,  -199,  -251,  8084
43851,  -202,  -150,  8112
43861,  -223,   -96,  8155
43871,  -176,   -74,  8149
43881,  -124,  -147,  8144
43891,    -8,  -360,  8118
43901,    65,  -525,  8129
43911,    29,  -529,  8094
43921,   -79,  -423,  8101
43931,   -84,  -330,  8110
43941,  -112,  -194,  8130
43951,   -91,  -106,  8163
43961,  -125,   -65,  8178
43971,  -156,    40,  8181
43981,  -190,    54,  8147
43991,  -185,    96,  8178
44001,  -139,   125,  8216
44011,   -35,   -59,  8140
44021,   -15,  -303,  8123
44031,   -20,  -411,  8152
44041,   -69,  -350,  8182
44051,   -82,  -180,  8175
44061,  -130,  -112,  8188
44071,  -291,    38,  8185
44081,  -461,   197,  8195
44091,  -486,   228,  8155
44101,  -427,   199,  8154
44111,  -456,   191,  8152
44125,  -541,   272,  8175
44134,  -533,   223,  8160
44145,  -550,    44,  8100
44155,  -703,   -69,  8044
44164,  -846,  -119,  8081
44174,  -835,  -146,  8087
44184,  -746,  -137,  8048
44194,  -651,   -71,  8101
44205,  -558,   -15,  8110
44215,  -457,    34,  8038
44224,  -440,   -92,  8047
44233,  -404,   -66,  8118
44244,  -358,     4,  8097
44254,  -280,  -104,  8052
44263,  -328,   -95,  8095
44274,  -344,   -23,  8089
44284,  -317,    -5,  8089
44294,  -353,   -53,  8016
44304,  -408,    88,  8073
44314,  -455,   183,  8076
44325,  -376,   261,  8089
44335,  -394,   255,  8065
44344,  -487,   182,  8087
44354,  -452,   127,  8106
44365,  -452,   167,  8152
44375,  -414,   301,  8184
44385,  -323,   346,  8165
44395,  -292,   318,  8189
44405,  -234,   401,  8150
44414,  -231,   388,  8074
44423,  -251,   253,  8093
44434,  -314,    92,  8080
44444,  -395,   -19,  8080
44454,  -465,   -56,  8031
44464,  -496,   -70,  8052
44474,  -510,     5,  8096
44484,  -493,    47,  8134
44494,  -417,    96,  8101
44504,  -395,   114,  8078
44514,  -398,   207,  8126
44524,  -445,   178,  8164
44534,  -433,   180,  8125
44544,  -487,   214,  8128
44554,  -419,   272,  8133
44564,  -365,   235,  8107
44574,  -390,   208,  8114
44584,  -401,   145,  8102
44594,  -439,   179,  8151
44604,  -431,   105,  8150
44614,  -404,    38,  8153
44622,  -386,   -10,  8127
44632,  -380,   -58,  8084
44642,  -332,    -2,  8060
44652,  -356,   -24,  8067
44662,  -354,    22,  8110
44672,  -366,   101,  8146
44682,  -377,   137,  8174
44692,  -378,    -7,  8139
44701,  -374,   100,  8124
44712,  -387,   223,  8083
44722,  -396,   658,  8096
44732,  -422,   939,  8062
44742,  -422,  1026,  8055
44752,  -418,   961,  8076
44762,  -342,   772,  8106
