time,accx,accy,accz
5,  -224,    95,  8185
10,  -233,    54,  8178
15,  -243,    27,  8174
20,  -242,     3,  8157
24,  -253,    -8,  8155
29,  -260,   -10,  8154
34,  -260,   -19,  8148
39,  -271,   -17,  8155
44,  -272,   -24,  8157
49,  -279,   -19,  8169
54,  -281,   -18,  8173
59,  -277,   -27,  8159
63,  -273,   -20,  8144
68,  -278,    -2,  8155
73,  -382,   323,  8109
78,  -426,   381,  8122
82,  -354,   190,  8131
87,  -278,   -40,  8163
92,  -280,   -25,  8010
97,  -231,  -195,  8154
102,  -211,  -236,  8169
106,  -231,  -182,  8183
111,  -250,  -119,  8202
116,  -239,  -114,  8178
120,  -230,  -134,  8155
125,  -207,  -140,  8127
130,  -212,  -103,  8153
135,  -202,  -103,  8119
140,  -190,   -83,  8114
144,  -192,   -81,  8126
149,  -187,   -83,  8127
154,  -188,   -82,  8125
161,  -190,   -79,  8129
172,  -188,   -82,  8138
181,  -191,   -87,  8146
192,  -192,   -87,  8140
201,  -188,   -88,  8137
212,  -191,   -84,  8142
222,  -191,   -76,  8141
232,  -194,   -77,  8146
242,  -192,   -80,  8136
252,  -196,   -83,  8139
262,  -200,   -82,  8143
271,  -203,   -82,  8153
282,  -194,   -83,  8145
292,  -190,   -84,  8140
302,  -185,   -82,  8142
312,  -187,   -81,  8138
322,  -189,   -80,  8135
332,  -193,   -79,  8142
342,  -194,   -77,  8146
352,  -189,   -75,  8147
361,  -183,   -81,  8146
372,  -178,   -87,  8151
381,  -181,   -87,  8151
392,  -185,   -90,  8160
401,  -190,   -88,  8168
412,  -186,   -89,  8170
422,  -181,   -92,  8160
432,  -183,   -93,  8150
442,  -182,   -89,  8153
452,  -176,   -90,  8143
462,  -178,   -88,  8151
472,  -183,   -90,  8152
482,  -190,   -93,  8156
492,  -195,   -96,  8159
502,  -191,   -99,  8157
512,  -190,   -97,  8148
522,  -192,   -91,  8147
532,  -193,   -89,  8142
542,  -194,   -90,  8143
552,  -192,   -90,  8147
562,  -189,   -87,  8148
572,  -189,   -85,  8147
582,  -190,   -81,  8153
592,  -192,   -77,  8150
602,  -188,   -71,  8149
612,  -189,   -77,  8148
622,  -193,   -83,  8154
632,  -191,   -83,  8151
642,  -185,   -79,  8149
652,  -187,   -77,  8147
667,  -184,   -76,  8148
678,  -186,   -73,  8152
688,  -185,   -73,  8155
698,  -183,   -77,  8153
708,  -187,   -79,  8155
719,  -193,   -81,  8161
729,  -193,   -81,  8159
739,  -196,   -77,  8159
749,  -195,   -76,  8165
760,  -198,   -77,  8156
769,  -197,   -81,  8151
778,  -191,   -81,  8150
786,  -189,   -80,  8144
796,  -189,   -77,  8141
806,  -187,   -78,  8145
816,  -184,   -83,  8151
826,  -189,   -82,  8148
836,  -184,   -77,  8146
846,  -187,   -76,  8147
856,  -193,   -78,  8150
866,  -193,   -80,  8152
876,  -190,   -83,  8152
886,  -191,   -80,  8153
896,  -187,   -79,  8146
907,  -183,   -77,  8145
916,  -180,   -82,  8143
926,  -182,   -79,  8141
936,  -184,   -78,  8148
946,  -187,   -75,  8150
956,  -188,   -71,  8150
966,  -187,   -74,  8151
976,  -191,   -69,  8150
986,  -187,   -67,  8153
996,  -190,   -68,  8154
1006,  -189,   -67,  8151
1016,  -188,   -68,  8151
1026,  -188,   -72,  8146
1037,  -187,   -76,  8154
1046,  -186,   -78,  8152
1056,  -185,   -80,  8150
1067,  -185,   -82,  8149
1077,  -185,   -82,  8153
1088,  -189,   -76,  8156
1098,  -184,   -70,  8151
1108,  -184,   -76,  8150
1118,  -187,   -80,  8154
1129,  -192,   -81,  8155
1139,  -187,   -82,  8152
1149,  -190,   -83,  8144
1159,  -192,   -90,  8147
1168,  -192,   -86,  8146
1177,  -189,   -89,  8147
1186,  -190,   -94,  8142
1196,  -188,   -93,  8136
1206,  -189,  -101,  8145
1216,  -192,   -98,  8152
1226,  -197,   -97,  8150
1236,  -194,   -92,  8150
1246,  -192,   -90,  8151
1256,  -194,   -91,  8159
1267,  -193,   -92,  8149
1277,  -196,   -97,  8148
1287,  -200,   -85,  8162
1298,  -196,   -80,  8169
1308,  -179,   -56,  8156
1318,  -179,   -26,  8164
1328,  -214,   -43,  8149
1339,  -233,   -40,  8130
1349,  -233,   -78,  8131
1359,  -223,   -88,  8140
1368,  -214,  -100,  8126
1377,  -209,   -95,  8130
1387,  -207,  -102,  8145
1397,  -213,   -90,  8141
1407,  -215,   -87,  8169
1417,  -214,  -114,  8188
1427,  -210,  -113,  8172
1437,  -206,  -108,  8150
1447,  -195,  -117,  8128
1457,  -195,  -109,  8144
1467,  -201,   -94,  8151
1478,  -200,   -91,  8146
1488,  -197,  -101,  8151
1499,  -202,  -101,  8157
1509,  -195,  -115,  8185
1519,  -193,  -119,  8158
1529,  -180,  -109,  8183
1539,  -173,   -90,  8188
1549,  -216,  -101,  8178
1560,  -229,  -104,  8182
1569,  -228,  -109,  8179
1578,  -238,  -112,  8167
1587,  -237,  -103,  8156
1597,  -231,  -101,  8161
1607,  -216,   -96,  8159
1617,  -226,   -90,  8169
1627,  -233,   -91,  8164
1637,  -227,   -85,  8146
1647,  -223,   -78,  8150
1657,  -226,   -74,  8143
1667,  -252,   -62,  8155
1678,  -262,   -61,  8148
1688,  -257,   -67,  8158
1699,  -241,   -80,  8163
1709,  -213,   -84,  8161
1719,  -210,   -86,  8150
1729,  -231,   -84,  8150
1739,  -247,   -79,  8153
1752,  -251,   -72,  8151
1763,  -246,   -71,  8149
1773,  -244,   -67,  8146
1783,  -243,   -66,  8142
1792,  -240,   -64,  8146
1802,  -239,   -67,  8146
1815,  -243,   -72,  8157
1824,  -241,   -76,  8158
1833,  -236,   -77,  8166
1842,  -226,   -76,  8156
1851,  -224,   -78,  8149
1860,  -222,   -77,  8149
1869,  -221,   -78,  8152
1878,  -218,   -76,  8153
1886,  -223,   -68,  8145
1897,  -229,   -58,  8139
1907,  -230,   -53,  8138
1918,  -225,   -53,  8140
1926,  -221,   -56,  8145
1937,  -226,   -52,  8146
1948,  -229,   -47,  8147
1957,  -229,   -47,  8151
1967,  -226,   -46,  8150
1977,  -228,   -54,  8151
1987,  -220,   -61,  8145
1997,  -218,   -59,  8145
2008,  -221,   -35,  8162
2018,  -210,   -67,  8152
2027,  -211,   -79,  8145
2037,  -217,   -86,  8152
2047,  -218,   -93,  8154
2057,  -219,   -97,  8161
2067,  -225,   -92,  8163
2078,  -232,   -87,  8170
2089,  -231,   -88,  8164
2099,  -225,   -86,  8163
2109,  -221,   -86,  8156
2119,  -216,   -83,  8145
2129,  -213,   -75,  8135
2140,  -214,   -68,  8144
2150,  -218,   -73,  8147
2160,  -223,   -64,  8149
2170,  -224,   -61,  8151
2180,  -222,   -61,  8146
2191,  -228,   -56,  8150
2201,  -218,   -62,  8153
2211,  -220,   -62,  8158
2221,  -221,   -57,  8161
2232,  -220,   -56,  8153
2242,  -223,   -51,  8152
2252,  -221,   -51,  8152
2262,  -215,   -59,  8145
2273,  -212,   -67,  8147
2283,  -215,   -66,  8150
2293,  -219,   -67,  8148
2303,  -220,   -69,  8153
2313,  -217,   -75,  8168
2324,  -220,   -78,  8176
2334,  -228,   -79,  8175
2344,  -225,   -77,  8165
2354,  -227,   -73,  8158
2364,  -226,   -70,  8156
2375,  -225,   -72,  8153
2385,  -223,   -78,  8147
2395,  -216,   -71,  8144
2405,  -216,   -67,  8132
2416,  -218,   -68,  8135
2426,  -221,   -70,  8136
2436,  -218,   -73,  8136
2446,  -222,   -68,  8147
2457,  -227,   -65,  8155
2467,  -229,   -60,  8152
2477,  -230,   -58,  8145
2487,  -226,   -61,  8143
2497,  -217,   -63,  8141
2508,  -218,   -66,  8141
2518,  -223,   -65,  8143
2528,  -223,   -65,  8152
2538,  -223,   -63,  8157
2549,  -226,   -62,  8156
2559,  -228,   -61,  8156
2569,  -231,   -58,  8153
2579,  -225,   -59,  8143
2589,  -223,   -57,  8138
2600,  -216,   -58,  8132
2610,  -212,   -60,  8137
2620,  -212,   -63,  8139
2631,  -216,   -65,  8147
2641,  -223,   -73,  8155
2651,  -230,   -68,  8169
2661,  -233,   -66,  8171
2672,  -232,   -72,  8160
2682,  -225,   -70,  8150
2692,  -222,   -65,  8156
2703,  -218,   -66,  8150
2713,  -219,   -67,  8145
2723,  -225,   -70,  8136
2733,  -223,   -68,  8139
2744,  -225,   -67,  8132
2754,  -220,   -69,  8136
2764,  -218,   -69,  8139
2775,  -224,   -68,  8145
2785,  -222,   -75,  8149
2794,  -220,   -78,  8145
2803,  -218,   -75,  8141
2812,  -219,   -77,  8141
2821,  -219,   -75,  8140
2830,  -220,   -74,  8139
2839,  -216,   -73,  8148
2847,  -220,   -69,  8159
2856,  -217,   -67,  8155
2865,  -216,   -75,  8152
2874,  -210,   -78,  8149
2883,  -212,   -83,  8143
2893,  -214,   -87,  8137
2904,  -216,   -86,  8140
2914,  -217,   -86,  8143
2925,  -223,   -85,  8141
2935,  -224,   -87,  8140
2945,  -222,   -86,  8144
2955,  -221,   -79,  8145
2966,  -219,   -73,  8156
2976,  -219,   -78,  8158
2986,  -221,   -82,  8160
2995,  -221,   -84,  8169
3005,  -219,   -72,  8166
3013,  -222,   -65,  8157
3022,  -219,   -53,  8148
3031,  -208,     1,  8121
3040,  -221,   -34,  8133
3050,  -217,   -61,  8130
3059,  -224,   -42,  8146
3068,  -222,   -20,  8155
3078,  -233,   -13,  8155
3088,  -235,    -8,  8161
3098,  -232,   -10,  8177
3108,  -223,    42,  8175
3118,  -157,    35,  8202
3128,   -32,   -22,  8207
3138,    77,   100,  8000
3148,   418,   408,  8048
3158,   257,   289,  8416
3168,    38,    21,  8984
3178,   140,   135,  9214
3188,   354,   343,  9306
3198,   491,   351,  9432
3208,   590,   246,  9569
3218,   687,   201,  9559
3228,   793,   217,  9446
3238,   903,   200,  9301
3248,  1010,    66,  9192
3258,  1091,  -115,  8997
3268,  1187,  -219,  8658
3278,  1253,  -335,  8442
3289,  1310,  -517,  8316
3298,  1352,  -633,  8139
3308,  1401,  -716,  7899
3318,  1420,  -740,  7628
3328,  1461,  -664,  7446
3339,  1483,  -615,  7513
3349,  1478,  -587,  7783
3359,  1449,  -576,  8094
3369,  1361,  -520,  8250
3379,  1263,  -339,  8197
3389,  1196,  -195,  8059
3398,  1137,  -293,  8041
3408,  1128,  -489,  8122
3418,  1086,  -538,  8187
3428,  1012,  -491,  8207
3438,   913,  -383,  8159
3448,   882,  -300,  8049
3458,   852,  -284,  7961
3468,   817,  -310,  7917
3478,   815,  -358,  7885
3488,   802,  -449,  7855
3498,   796,  -574,  7850
3508,   812,  -658,  7846
3518,   767,  -648,  7818
3528,   666,  -564,  7772
3538,   615,  -479,  7617
3548,   593,  -481,  7462
3558,   599,  -532,  7404
3568,   622,  -621,  7430
3578,   594,  -650,  7533
3588,   577,  -633,  7599
3598,   532,  -604,  7687
3608,   469,  -546,  7708
3618,   452,  -483,  7570
3628,   398,  -461,  7417
3638,   351,  -442,  7329
3648,   290,  -402,  7328
3658,   217,  -318,  7362
3668,   184,  -226,  7418
3678,   183,  -204,  7518
3688,   181,  -223,  7693
3698,   161,  -247,  7880
3709,   109,  -187,  7998
3719,    19,   -13,  8012
3729,   -57,   193,  8013
3739,   -99,   264,  8080
3749,  -138,   269,  8234
3759,  -244,   395,  8282
3769,  -293,   453,  8161
3779,  -232,   226,  8027
3789,  -111,  -174,  8015
3799,   -23,  -462,  8066
3809,   -69,  -399,  8038
3819,  -122,  -188,  7908
3829,   -74,  -268,  7793
3839,     1,  -548,  7849
3849,    68,  -815,  7971
3859,    77,  -937,  8082
3869,    50,  -957,  8155
3878,    34,  -934,  8153
3889,    60,  -975,  8201
3898,   104, -1071,  8280
3908,    64, -1063,  8373
3918,    45,  -949,  8253
3928,    64,  -900,  8212
3938,    51,  -948,  8388
3948,    17,  -982,  8573
3958,   -39,  -821,  8568
3968,   -87,  -577,  8483
3978,   -93,  -461,  8415
3988,   -99,  -391,  8355
3998,  -107,  -223,  8224
4008,   -59,   -77,  8071
4018,    15,   -37,  8121
4028,    86,   -14,  8282
4038,    62,   129,  8550
4048,   104,   250,  8602
4058,   203,   213,  8643
4068,   249,   147,  8704
4078,   369,   -22,  8627
4088,   454,  -213,  8566
4098,   474,  -252,  8381
4108,   539,  -388,  8123
4118,   602,  -772,  8009
4128,   612, -1173,  7947
4138,   598, -1456,  7796
4148,   585, -1640,  7739
4158,   501, -1604,  7851
4168,   329, -1319,  7919
4178,   282, -1140,  7925
4188,   277, -1137,  8106
4199,   183, -1032,  8334
4210,   145,  -910,  8339
4220,   157,  -972,  8257
4230,   115, -1103,  8251
4240,    39, -1169,  8250
4250,     3, -1174,  8213
4261,   -46, -1034,  8314
4271,   -66,  -863,  8553
4281,  -131,  -729,  8841
4291,  -267,  -495,  8857
4301,  -339,  -269,  8491
4310,  -328,  -293,  8143
4319,  -367,  -406,  8061
4329,  -390,  -513,  8035
4338,  -427,  -522,  7942
4348,  -471,  -513,  7753
4359,  -432,  -661,  7613
4369,  -348,  -933,  7559
4379,  -284, -1160,  7599
4389,  -257, -1307,  7692
4399,  -200, -1359,  7739
4409,  -132, -1437,  7816
4419,  -115, -1448,  7969
4429,  -107, -1319,  8049
4439,  -133, -1125,  7996
4449,  -137, -1110,  7802
4459,  -112, -1244,  7646
4469,  -132, -1336,  7622
4479,  -110, -1392,  7619
4489,  -133, -1382,  7719
4499,  -295, -1182,  7954
4509,  -422,  -868,  8122
4519,  -559,  -565,  8358
4529,  -734,  -275,  8674
4539,  -840,  -145,  8888
4549,  -920,  -145,  8799
4559,  -926,  -213,  8460
4571,  -804,  -503,  8123
4580,  -734,  -819,  8045
4590,  -697, -1005,  8099
4599,  -723, -1129,  8273
4612,  -774, -1106,  8462
4621,  -755, -1083,  8583
4630,  -761, -1122,  8677
4639,  -805, -1151,  8668
4649,  -858, -1167,  8513
4659,  -919, -1058,  8364
4669, -1009,  -952,  8312
4679, -1064,  -915,  8316
4689, -1207,  -830,  8360
4699, -1393,  -750,  8189
4710, -1513,  -737,  7875
4721, -1612,  -746,  7778
4731, -1717,  -685,  7970
4741, -1675,  -615,  8133
4752, -1550,  -723,  8171
4762, -1385,  -827,  8056
4772, -1194,  -934,  7795
4782, -1011, -1065,  7521
4793,  -853, -1100,  7344
4803,  -885,  -760,  7395
4812,  -921,  -201,  7482
4820,  -869,   130,  7698
4829,  -915,   338,  8146
4839, -1001,   481,  8570
4850, -1127,   508,  8864
4860, -1286,   595,  8917
4870, -1186,   429,  8764
4880, -1066,   -54,  8732
4890,  -976,  -499,  8597
4900,  -906,  -834,  8111
4910,  -874, -1110,  7555
4920,  -895, -1190,  7244
4930,  -843, -1213,  7254
4940,  -773, -1334,  7572
4950,  -720, -1434,  8021
4960,  -700, -1334,  8416
4970,  -648, -1092,  8649
4979,  -618,  -834,  8709
4989,  -604,  -550,  8594
4999,  -489,  -292,  8277
5009,  -300,  -147,  8003
5020,  -128,   -97,  8017
5030,   -47,    18,  8163
5039,   -25,   276,  8189
5050,   -28,   546,  8180
5060,  -102,   780,  8325
5070,  -207,   881,  8521
5080,  -310,   875,  8556
5090,  -363,   746,  8485
5100,  -477,   637,  8374
5110,  -492,   460,  8145
5120,  -473,   114,  7943
5130,  -473,  -285,  7846
5139,  -452,  -835,  8520
5150,  -418,  -800,  8386
5162,  -428,  -731,  8334
5172,  -407,  -655,  8313
5181,  -402,  -601,  8291
5191,  -374,  -512,  8242
5199,  -284,  -433,  8206
5211,  -250,  -376,  8153
5221,  -426,  -231,  8128
5231,  -310,  -193,  8152
5241,     0,  -382,  8240
5252,  -236,  -268,  8294
5262,  -315,  -112,  8178
5272,  -147,  -272,  8148
5282,  -310,  -383,  8024
5293,  -128,  -507,  7856
5303,  -328,  -402,  7958
5313,  -529,  -210,  7976
5324,  -553,    43,  8084
5334,  -642,   180,  8164
5344,  -613,   232,  8196
5354,  -589,   272,  8161
5365,  -498,   332,  8158
5375,  -457,   335,  8140
5385,  -428,   217,  8083
5395,  -400,    85,  8050
5406,  -353,   -39,  8086
5415,  -506,  -126,  8097
5424,  -455,   -97,  8143
5433,  -447,   -86,  8180
5442,  -422,  -120,  8160
5451,  -346,   -14,  8222
5460,  -488,   -62,  8156
5469,  -466,   -49,  8108
5479,  -474,   -78,  8074
5489,  -472,   -51,  8080
5499,  -443,   -11,  8126
5509,  -422,    26,  8196
5520,  -421,    23,  8235
5530,  -420,     5,  8236
5540,  -406,    -3,  8164
5550,  -394,     8,  8111
5560,  -382,    20,  8089
5570,  -378,    32,  8091
5580,  -376,    40,  8097
5590,  -374,    46,  8104
5600,  -372,    52,  8115
5610,  -376,    56,  8129
5620,  -383,    49,  8139
5630,  -393,    47,  8156
5640,  -398,    53,  8173
5650,  -405,    68,  8190
5660,  -409,    88,  8213
5670,  -415,    98,  8207
5680,  -411,    94,  8192
5690,  -411,    82,  8158
5700,  -401,    71,  8124
5710,  -392,    70,  8108
5720,  -384,    81,  8114
5730,  -381,    93,  8120
5740,  -379,    87,  8126
5750,  -378,    73,  8129
5760,  -381,    69,  8126
5770,  -383,    72,  8137
5780,  -386,    76,  8144
5791,  -388,    84,  8161
5801,  -402,    78,  8180
5810,  -406,    64,  8183
5820,  -407,    67,  8188
5830,  -400,    73,  8187
5840,  -395,    80,  8177
5850,  -404,    81,  8166
5860,  -395,    76,  8138
5870,  -381,    77,  8129
5880,  -372,    78,  8129
5890,  -365,    88,  8106
5900,  -371,    95,  8095
5910,  -374,    90,  8088
5921,  -376,    80,  8082
5931,  -375,    72,  8097
5941,  -369,    71,  8122
5952,  -374,    75,  8164
5962,  -387,    79,  8195
5972,  -393,    79,  8203
5983,  -396,    76,  8203
5993,  -393,    72,  8181
6003,  -392,    72,  8143
6014,  -388,    65,  8121
6023,  -394,    53,  8120
6032,  -393,    57,  8121
6041,  -388,    70,  8153
6050,  -383,    72,  8152
6060,  -380,    59,  8141
6070,  -379,    46,  8120
6080,  -373,    41,  8093
6090,  -370,    50,  8098
6100,  -363,    59,  8117
6110,  -362,    75,  8144
6120,  -374,    72,  8166
6132,  -380,    54,  8170
6142,  -392,    42,  8163
6153,  -393,    44,  8154
6163,  -343,   147,  8174
6173,  -401,    73,  8174
6183,  -405,    74,  8181
6194,  -401,    66,  8172
6204,  -396,    52,  8156
6215,  -394,    35,  8138
6224,  -392,    37,  8129
6233,  -392,    43,  8124
6243,  -395,    65,  8131
6251,  -386,    70,  8123
6260,  -376,    61,  8105
6271,  -367,    64,  8076
6281,  -365,    78,  8071
6291,  -374,    85,  8087
6301,  -371,    85,  8125
6311,  -368,    92,  8172
6321,  -382,    75,  8208
6331,  -400,    49,  8244
6341,  -412,    32,  8257
6351,  -407,    20,  8228
6361,  -415,    20,  8186
6370,  -420,    33,  8145
6380,  -412,    54,  8124
6391,  -405,    64,  8116
6400,  -391,    76,  8112
6410,  -353,    77,  8095
6420,  -333,    80,  8029
6430,  -329,    73,  7944
6440,  -334,    47,  7898
6450,  -331,    42,  7944
6460,  -351,    48,  8077
6471,  -373,    74,  8235
6481,  -385,   109,  8362
6491,  -410,   107,  8401
6501,  -408,    81,  8381
6511,  -399,    56,  8272
6521,  -381,    48,  8155
6531,  -368,    47,  8014
6541,  -356,    46,  7917
6551,  -356,    53,  7888
6561,  -357,    74,  7943
6571,  -364,   100,  8077
6581,  -365,   123,  8217
6591,  -365,   118,  8299
6600,  -398,    82,  8312
6610,  -411,    48,  8242
6620,  -407,    34,  8164
6630,  -402,    51,  8103
6641,  -395,    68,  8067
6651,  -397,   101,  8085
6661,  -395,   100,  8084
6671,  -392,   113,  8087
6681,  -400,   111,  8098
6691,  -391,    91,  8141
6701,  -389,   100,  8166
6711,  -378,   131,  8192
6721,  -381,   141,  8180
6731,  -384,   129,  8170
6741,  -390,   113,  8154
6751,  -384,   116,  8152
6761,  -378,   134,  8159
6771,  -384,   137,  8193
6781,  -399,   113,  8217
6790,  -313,   180,  8199
6800,  -417,    73,  8158
6810,  -423,    91,  8132
6820,  -415,    85,  8090
6830,  -410,    71,  8058
6841,  -407,    79,  8047
6851,  -399,   106,  8053
6860,  -398,   118,  8083
6871,  -401,    99,  8114
6881,  -399,    84,  8125
6891,  -393,    82,  8130
6901,  -389,    90,  8134
6911,  -388,    96,  8123
6921,  -391,   105,  8111
6931,  -392,   106,  8086
6941,  -396,   109,  8093
6951,  -399,   108,  8130
6961,  -399,   116,  8152
6971,  -401,   121,  8157
6981,  -398,   113,  8137
6992,  -392,    99,  8105
7001,  -394,    92,  8097
7011,  -394,   101,  8094
7021,  -390,   104,  8095
7031,  -389,   107,  8116
7041,  -390,   100,  8127
7051,  -393,    99,  8142
7061,  -401,   111,  8170
7072,  -400,   114,  8194
7082,  -400,   119,  8205
7091,  -399,   116,  8190
7101,  -399,   107,  8145
7111,  -399,   107,  8107
7121,  -398,   107,  8090
7131,  -396,   110,  8091
7141,  -399,   117,  8112
7151,  -398,   128,  8132
7161,  -396,   122,  8144
7172,  -397,   116,  8144
7182,  -401,   120,  8128
7192,  -403,   123,  8125
7202,  -405,   124,  8125
7212,  -410,   123,  8140
7222,  -416,   123,  8158
7232,  -413,   124,  8167
7242,  -412,   123,  8163
7251,  -418,   121,  8153
7261,  -415,   120,  8148
7271,  -416,   125,  8149
7281,  -413,   139,  8152
7291,  -415,   133,  8151
7301,  -416,   127,  8149
7311,  -418,   128,  8152
7321,  -418,   140,  8141
7331,  -417,   150,  8130
7341,  -421,   149,  8115
7351,  -420,   141,  8098
7361,  -417,   148,  8100
7371,  -411,   149,  8103
7381,  -408,   148,  8097
7391,  -415,   148,  8110
7401,  -402,   145,  8106
7411,  -404,   157,  8116
7421,  -402,   167,  8127
7432,  -411,   160,  8144
7442,  -400,   152,  8144
7451,  -426,   154,  8165
7462,  -420,   168,  8154
7472,  -440,   171,  8167
7482,  -428,   169,  8163
7492,  -435,   167,  8157
7502,  -435,   170,  8141
7512,  -436,   172,  8129
7522,  -434,   170,  8131
7532,  -432,   174,  8133
7542,  -432,   179,  8128
7552,  -423,   183,  8128
7561,  -424,   182,  8122
7571,  -426,   184,  8116
7581,  -430,   174,  8121
7591,  -439,   182,  8147
7601,  -440,   202,  8164
7611,  -439,   211,  8167
7621,  -435,   209,  8146
7631,  -434,   203,  8131
7641,  -450,   199,  8140
7651,  -446,   198,  8156
7661,  -456,   203,  8187
7671,  -459,   204,  8221
7681,  -455,   207,  8217
7691,  -455,   205,  8177
7702,  -456,   197,  8128
